"rt","stimulus","response","trial_type","trial_index","time_elapsed","internal_node_id","ses_1","ses_2","ses_3","ses_4","ses_5","ses_6","ses_7","ses_8","ses_9","ses_10","coreself_1","coreself_2","coreself_3","coreself_4","coreself_5","coreself_6","coreself_7","coreself_8","coreself_9","coreself_10","SGPS_1","SGPS_2","SGPS_3","SGPS_4","SGPS_5","SGPS_6","SGPS_7","SGPS_8","SGPS_9","SGPS_10","N1","N2","N3","N4","N5","N7","N8","N9","N10","N11","N12","N13","N14","N15","N16","hsns_1","hsns_2","hsns_3","hsns_4","hsns_5","hsns_6","hsns_7","hsns_8","hsns_9","hsns_10","subj_idx","value","success","user_agent","responses","item_order","radio_event_ids","radio_event_times","key_event_times","mouse_event_times","straightlining","zigzagging","honeypot","timeout","failed_images","failed_audio","failed_video","view_history","response_type","key_press","avg_frame_time","center_x","center_y","correct_response","correct","Image","word","Image_word","condition","screen_id","task_id","time_stamp","version_attrib","version_target","IAT","RT","varname","summary","version_attrib2","version_target2","question_order"
"11338004","
   <p><div style = ""color: white"">您好，欢迎参加本次实验。</div> </p>
   <p><div style = ""color: white"">为充分保障您的权利，请确保您已经知晓并同意《参与实验同意书》以及《数据公开知情同意书》。</div></p>
   <p><div style = ""color: white"">如果您未见过上述内容，请咨询实验员。</div></p>
   <p><div style = ""color: white"">如果您选择继续实验，则表示您已经清楚两份知情同意书的内容并同意。</div></p>
   <p> <div style = ""color: green""><按空格键至下页></div> </p>
   "," ","html-keyboard-response","0","11338005","0.0-0.0","1","2","1","2","0","3","0","3","2","1","3","1","2","0","1","1","4","1","3","3","4","1","1","3","1","4","2","2","3","","1","0","1","1","0","1","1","1","0","1","0","0","0","0","0","3","1","3","3","1","1","1","1","2","3","27","","","","","","","","","","","","","","","","","","","","","","","","","","","","","","","","","","","","","","","",""
"","","","call-function","1","11338006","0.0-1.0-0.0","1","2","1","2","0","3","0","3","2","1","3","1","2","0","1","1","4","1","3","3","4","1","1","3","1","4","2","2","3","","1","0","1","1","0","1","1","1","0","1","0","0","0","0","0","3","1","3","3","1","1","1","1","2","3","27","","","","","","","","","","","","","","","","","","","","","","","","","","","","","","","","","","","","","","","",""
"5441","","{""Q0"":""27""}","survey-html-form","2","11343448","0.0-1.0-1.0","1","2","1","2","0","3","0","3","2","1","3","1","2","0","1","1","4","1","3","3","4","1","1","3","1","4","2","2","3","","1","0","1","1","0","1","1","1","0","1","0","0","0","0","0","3","1","3","3","1","1","1","1","2","3","27","","","","","","","","","","","","","","","","","","","","","","","","","","","","","","","","","","","","","","","",""
"","","","fullscreen","3","11345685","0.0-2.0","1","2","1","2","0","3","0","3","2","1","3","1","2","0","1","1","4","1","3","3","4","1","1","3","1","4","2","2","3","","1","0","1","1","0","1","1","1","0","1","0","0","0","0","0","3","1","3","3","1","1","1","1","2","3","27","","true","{}","","","","","","","","","","","","","","","","","","","","","","","","","","","","","","","","","","","","",""
"16908.799999952316","","","survey-template","4","11362596","0.0-3.0","1","2","1","2","0","3","0","3","2","1","3","1","2","0","1","1","4","1","3","3","4","1","1","3","1","4","2","2","3","","1","0","1","1","0","1","1","1","0","1","0","0","0","0","0","3","1","3","3","1","1","1","1","2","3","27","","","","{""Q02"":""2"",""Q07"":""0"",""Q06"":""3"",""Q09"":""2"",""Q10"":""1"",""Q04"":""2"",""Q01"":""1"",""Q05"":""0"",""Q08"":""3"",""Q03"":""1""}","[1,6,5,8,9,3,0,4,7,2]","[""Q02"",""Q07"",""Q06"",""Q09"",""Q10"",""Q04"",""Q01"",""Q05"",""Q08"",""Q03""]","[2897.399999976158,3775.1999999284744,5042.199999928474,5943.100000023842,7135.699999928474,8942.100000023842,9925.100000023842,11230,13165.299999952316,15326.199999928474]","[]","[2897.399999976158,3775.1999999284744,5042.199999928474,5943.100000023842,7135.699999928474,8942.100000023842,9925.100000023842,11230,13165.299999952316,15326.199999928474,16908.199999928474]","0.3","0.7777777777777778","0","","","","","","","","","","","","","","","","","","","","","","","","","","","",""
"122924.79999995232","","","survey-template","5","11485524","0.0-4.0","1","2","1","2","0","3","0","3","2","1","3","1","2","0","1","1","4","1","3","3","4","1","1","3","1","4","2","2","3","","1","0","1","1","0","1","1","1","0","1","0","0","0","0","0","3","1","3","3","1","1","1","1","2","3","27","","","","{""Q09"":""3"",""Q05"":""1"",""Q07"":""4"",""Q04"":""0"",""Q03"":""2"",""Q10"":""3"",""Q02"":""1"",""Q06"":""1"",""Q08"":""1"",""Q01"":""3""}","[8,4,6,3,2,9,1,5,7,0]","[""Q09"",""Q05"",""Q07"",""Q04"",""Q03"",""Q10"",""Q02"",""Q06"",""Q08"",""Q01""]","[78027.89999997616,79243.19999992847,81237.29999995232,82475.89999997616,85303.59999990463,113870.79999995232,116001.59999990463,118273.89999997616,121026.89999997616,122173.69999992847]","[]","[78027.89999997616,79243.19999992847,81237.29999995232,82475.89999997616,85303.59999990463,113870.79999995232,116001.59999990463,118273.89999997616,121026.89999997616,122173.69999992847,122924]","0.4","0.2222222222222222","0","","","","","","","","","","","","","","","","","","","","","","","","","","","",""
"","","","preload","6","11485539","0.0-5.0","1","2","1","2","0","3","0","3","2","1","3","1","2","0","1","1","4","1","3","3","4","1","1","3","1","4","2","2","3","","1","0","1","1","0","1","1","1","0","1","0","0","0","0","0","3","1","3","3","1","1","1","1","2","3","27","","true","","","","","","","","","","","false","[]","[]","[]","","","","","","","","","","","","","","","","","","","","","","","",""
"1223","","","instructions","7","11486762","0.0-6.0","1","2","1","2","0","3","0","3","2","1","3","1","2","0","1","1","4","1","3","3","4","1","1","3","1","4","2","2","3","","1","0","1","1","0","1","1","1","0","1","0","0","0","0","0","3","1","3","3","1","1","1","1","2","3","27","","","","","","","","","","","","","","","","","[{""page_index"":0,""viewing_time"":1222}]","","","","","","","","","","","","","","","","","","","","","","",""
"26339","","","instructions","8","11513102","0.0-7.0-0.0-0.0","1","2","1","2","0","3","0","3","2","1","3","1","2","0","1","1","4","1","3","3","4","1","1","3","1","4","2","2","3","","1","0","1","1","0","1","1","1","0","1","0","0","0","0","0","3","1","3","3","1","1","1","1","2","3","27","","","","","","","","","","","","","","","","","[{""page_index"":0,""viewing_time"":22139},{""page_index"":1,""viewing_time"":1575},{""page_index"":2,""viewing_time"":2625}]","","","","","","","","","","","","","","","","","","","","","","",""
"458","","j","psychophysics","9","11514562","0.0-7.0-0.0-1.0-0.0-0.0","1","2","1","2","0","3","0","3","2","1","3","1","2","0","1","1","4","1","3","3","4","1","1","3","1","4","2","2","3","","1","0","1","1","0","1","1","1","0","1","0","0","0","0","0","3","1","3","3","1","1","1","1","2","3","27","","","","","","","","","","","","","","","","","","key","j","4.214994186042743","728","476","j","true","img/diamond.png","菱形","菱形_菱形","prac_ALT11","","","","","","","","","","","",""
"null","<span style='color:GreenYellow; font-size: 70px;'>正确! </span>","null","html-keyboard-response","10","11515063","0.0-7.0-0.0-1.0-0.0-1.0","1","2","1","2","0","3","0","3","2","1","3","1","2","0","1","1","4","1","3","3","4","1","1","3","1","4","2","2","3","","1","0","1","1","0","1","1","1","0","1","0","0","0","0","0","3","1","3","3","1","1","1","1","2","3","27","","","","","","","","","","","","","","","","","","","","","","","","","","","","","feedback_test","","","","","","","","","","",""
"739","","f","psychophysics","11","11516804","0.0-7.0-0.0-1.0-0.0-0.1","1","2","1","2","0","3","0","3","2","1","3","1","2","0","1","1","4","1","3","3","4","1","1","3","1","4","2","2","3","","1","0","1","1","0","1","1","1","0","1","0","0","0","0","0","3","1","3","3","1","1","1","1","2","3","27","","","","","","","","","","","","","","","","","","key","f","4.166568345321025","728","476","f","true","img/circle.png","菱形","圆形_菱形","prac_ALT11","","","","","","","","","","","",""
"null","<span style='color:GreenYellow; font-size: 70px;'>正确! </span>","null","html-keyboard-response","12","11517306","0.0-7.0-0.0-1.0-0.0-1.1","1","2","1","2","0","3","0","3","2","1","3","1","2","0","1","1","4","1","3","3","4","1","1","3","1","4","2","2","3","","1","0","1","1","0","1","1","1","0","1","0","0","0","0","0","3","1","3","3","1","1","1","1","2","3","27","","","","","","","","","","","","","","","","","","","","","","","","","","","","","feedback_test","","","","","","","","","","",""
"514","","j","psychophysics","13","11518821","0.0-7.0-0.0-1.0-0.0-0.2","1","2","1","2","0","3","0","3","2","1","3","1","2","0","1","1","4","1","3","3","4","1","1","3","1","4","2","2","3","","1","0","1","1","0","1","1","1","0","1","0","0","0","0","0","3","1","3","3","1","1","1","1","2","3","27","","","","","","","","","","","","","","","","","","key","j","4.178141274239218","728","476","j","true","img/square.png","方形","方形_方形","prac_ALT11","","","","","","","","","","","",""
"null","<span style='color:GreenYellow; font-size: 70px;'>正确! </span>","null","html-keyboard-response","14","11519321","0.0-7.0-0.0-1.0-0.0-1.2","1","2","1","2","0","3","0","3","2","1","3","1","2","0","1","1","4","1","3","3","4","1","1","3","1","4","2","2","3","","1","0","1","1","0","1","1","1","0","1","0","0","0","0","0","3","1","3","3","1","1","1","1","2","3","27","","","","","","","","","","","","","","","","","","","","","","","","","","","","","feedback_test","","","","","","","","","","",""
"716","","f","psychophysics","15","11521039","0.0-7.0-0.0-1.0-0.0-0.3","1","2","1","2","0","3","0","3","2","1","3","1","2","0","1","1","4","1","3","3","4","1","1","3","1","4","2","2","3","","1","0","1","1","0","1","1","1","0","1","0","0","0","0","0","3","1","3","3","1","1","1","1","2","3","27","","","","","","","","","","","","","","","","","","key","f","4.166627737224428","728","476","f","true","img/triangle.png","圆形","三角_圆形","prac_ALT11","","","","","","","","","","","",""
"null","<span style='color:GreenYellow; font-size: 70px;'>正确! </span>","null","html-keyboard-response","16","11521541","0.0-7.0-0.0-1.0-0.0-1.3","1","2","1","2","0","3","0","3","2","1","3","1","2","0","1","1","4","1","3","3","4","1","1","3","1","4","2","2","3","","1","0","1","1","0","1","1","1","0","1","0","0","0","0","0","3","1","3","3","1","1","1","1","2","3","27","","","","","","","","","","","","","","","","","","","","","","","","","","","","","feedback_test","","","","","","","","","","",""
"643","","f","psychophysics","17","11523185","0.0-7.0-0.0-1.0-0.0-0.4","1","2","1","2","0","3","0","3","2","1","3","1","2","0","1","1","4","1","3","3","4","1","1","3","1","4","2","2","3","","1","0","1","1","0","1","1","1","0","1","0","0","0","0","0","3","1","3","3","1","1","1","1","2","3","27","","","","","","","","","","","","","","","","","","key","f","4.166468193384868","728","476","f","true","img/diamond.png","三角","菱形_三角","prac_ALT11","","","","","","","","","","","",""
"null","<span style='color:GreenYellow; font-size: 70px;'>正确! </span>","null","html-keyboard-response","18","11523686","0.0-7.0-0.0-1.0-0.0-1.4","1","2","1","2","0","3","0","3","2","1","3","1","2","0","1","1","4","1","3","3","4","1","1","3","1","4","2","2","3","","1","0","1","1","0","1","1","1","0","1","0","0","0","0","0","3","1","3","3","1","1","1","1","2","3","27","","","","","","","","","","","","","","","","","","","","","","","","","","","","","feedback_test","","","","","","","","","","",""
"617","","f","psychophysics","19","11525304","0.0-7.0-0.0-1.0-0.0-0.5","1","2","1","2","0","3","0","3","2","1","3","1","2","0","1","1","4","1","3","3","4","1","1","3","1","4","2","2","3","","1","0","1","1","0","1","1","1","0","1","0","0","0","0","0","3","1","3","3","1","1","1","1","2","3","27","","","","","","","","","","","","","","","","","","key","f","4.17725388601017","728","476","f","true","img/triangle.png","方形","三角_方形","prac_ALT11","","","","","","","","","","","",""
"null","<span style='color:GreenYellow; font-size: 70px;'>正确! </span>","null","html-keyboard-response","20","11525804","0.0-7.0-0.0-1.0-0.0-1.5","1","2","1","2","0","3","0","3","2","1","3","1","2","0","1","1","4","1","3","3","4","1","1","3","1","4","2","2","3","","1","0","1","1","0","1","1","1","0","1","0","0","0","0","0","3","1","3","3","1","1","1","1","2","3","27","","","","","","","","","","","","","","","","","","","","","","","","","","","","","feedback_test","","","","","","","","","","",""
"1396","<style>.context{color:white; font-size: 35px; line-height:40px}</style>                            <div><p class='context'>您正确回答了100% 的试次。</p><p class='context'>您的平均反应时为615毫秒。</p><p class='context'>恭喜您完成练习。按空格键进入正式实验。</p><p class='footer' style='font-size: 35px; line-height:40px;'>请在进入正式实验实验之前将您的<span style='color: lightgreen;'>食指</span>放在电脑键盘的相应键位上进行按键。</p>"," ","html-keyboard-response","21","11527202","0.0-7.0-0.0-2.0","1","2","1","2","0","3","0","3","2","1","3","1","2","0","1","1","4","1","3","3","4","1","1","3","1","4","2","2","3","","1","0","1","1","0","1","1","1","0","1","0","0","0","0","0","3","1","3","3","1","1","1","1","2","3","27","","","","","","","","","","","","","","","","","","","","","","","","","","","","","","","","","","","","","","","",""
"642","
    <p>请您将手指放在按键上，准备进入正式的匹配任务。</p>
    <p> <div style = ""color: green""><按空格键进入下一阶段的匹配任务></div></p>
    "," ","html-keyboard-response","22","11527845","0.0-7.0-0.0-3.0","1","2","1","2","0","3","0","3","2","1","3","1","2","0","1","1","4","1","3","3","4","1","1","3","1","4","2","2","3","","1","0","1","1","0","1","1","1","0","1","0","0","0","0","0","3","1","3","3","1","1","1","1","2","3","27","","","","","","","","","","","","","","","","","","","","","","","","","","","","","","","","","","","","","","","",""
"513","","j","psychophysics","23","11529360","0.0-7.0-0.0-4.0-0.0-0.0","1","2","1","2","0","3","0","3","2","1","3","1","2","0","1","1","4","1","3","3","4","1","1","3","1","4","2","2","3","","1","0","1","1","0","1","1","1","0","1","0","0","0","0","0","3","1","3","3","1","1","1","1","2","3","27","","","","","","","","","","","","","","","","","","key","j","4.189566666663935","728","476","j","true","img/square.png","方形","方形_方形","formal_ALT11","","","","","","","","","","","",""
"null","<span style='color:GreenYellow; font-size: 70px;'>正确! </span>","null","html-keyboard-response","24","11529861","0.0-7.0-0.0-4.0-0.0-1.0","1","2","1","2","0","3","0","3","2","1","3","1","2","0","1","1","4","1","3","3","4","1","1","3","1","4","2","2","3","","1","0","1","1","0","1","1","1","0","1","0","0","0","0","0","3","1","3","3","1","1","1","1","2","3","27","","","","","","","","","","","","","","","","","","","","","","","","","","","","","feedback_test","","","","","","","","","","",""
"545","","f","psychophysics","25","11531407","0.0-7.0-0.0-4.0-0.0-0.1","1","2","1","2","0","3","0","3","2","1","3","1","2","0","1","1","4","1","3","3","4","1","1","3","1","4","2","2","3","","1","0","1","1","0","1","1","1","0","1","0","0","0","0","0","3","1","3","3","1","1","1","1","2","3","27","","","","","","","","","","","","","","","","","","key","f","4.166578378382366","728","476","f","true","img/diamond.png","三角","菱形_三角","formal_ALT11","","","","","","","","","","","",""
"null","<span style='color:GreenYellow; font-size: 70px;'>正确! </span>","null","html-keyboard-response","26","11531908","0.0-7.0-0.0-4.0-0.0-1.1","1","2","1","2","0","3","0","3","2","1","3","1","2","0","1","1","4","1","3","3","4","1","1","3","1","4","2","2","3","","1","0","1","1","0","1","1","1","0","1","0","0","0","0","0","3","1","3","3","1","1","1","1","2","3","27","","","","","","","","","","","","","","","","","","","","","","","","","","","","","feedback_test","","","","","","","","","","",""
"570","","f","psychophysics","27","11533479","0.0-7.0-0.0-4.0-0.0-0.2","1","2","1","2","0","3","0","3","2","1","3","1","2","0","1","1","4","1","3","3","4","1","1","3","1","4","2","2","3","","1","0","1","1","0","1","1","1","0","1","0","0","0","0","0","3","1","3","3","1","1","1","1","2","3","27","","","","","","","","","","","","","","","","","","key","f","4.166526595744839","728","476","f","true","img/square.png","三角","方形_三角","formal_ALT11","","","","","","","","","","","",""
"null","<span style='color:GreenYellow; font-size: 70px;'>正确! </span>","null","html-keyboard-response","28","11533980","0.0-7.0-0.0-4.0-0.0-1.2","1","2","1","2","0","3","0","3","2","1","3","1","2","0","1","1","4","1","3","3","4","1","1","3","1","4","2","2","3","","1","0","1","1","0","1","1","1","0","1","0","0","0","0","0","3","1","3","3","1","1","1","1","2","3","27","","","","","","","","","","","","","","","","","","","","","","","","","","","","","feedback_test","","","","","","","","","","",""
"940","","f","psychophysics","29","11535921","0.0-7.0-0.0-4.0-0.0-0.3","1","2","1","2","0","3","0","3","2","1","3","1","2","0","1","1","4","1","3","3","4","1","1","3","1","4","2","2","3","","1","0","1","1","0","1","1","1","0","1","0","0","0","0","0","3","1","3","3","1","1","1","1","2","3","27","","","","","","","","","","","","","","","","","","key","f","4.164331896551724","728","476","f","true","img/square.png","菱形","方形_菱形","formal_ALT11","","","","","","","","","","","",""
"null","<span style='color:GreenYellow; font-size: 70px;'>正确! </span>","null","html-keyboard-response","30","11536422","0.0-7.0-0.0-4.0-0.0-1.3","1","2","1","2","0","3","0","3","2","1","3","1","2","0","1","1","4","1","3","3","4","1","1","3","1","4","2","2","3","","1","0","1","1","0","1","1","1","0","1","0","0","0","0","0","3","1","3","3","1","1","1","1","2","3","27","","","","","","","","","","","","","","","","","","","","","","","","","","","","","feedback_test","","","","","","","","","","",""
"566","","j","psychophysics","31","11537989","0.0-7.0-0.0-4.0-0.0-0.4","1","2","1","2","0","3","0","3","2","1","3","1","2","0","1","1","4","1","3","3","4","1","1","3","1","4","2","2","3","","1","0","1","1","0","1","1","1","0","1","0","0","0","0","0","3","1","3","3","1","1","1","1","2","3","27","","","","","","","","","","","","","","","","","","key","j","4.164318181818381","728","476","j","true","img/circle.png","圆形","圆形_圆形","formal_ALT11","","","","","","","","","","","",""
"null","<span style='color:GreenYellow; font-size: 70px;'>正确! </span>","null","html-keyboard-response","32","11538492","0.0-7.0-0.0-4.0-0.0-1.4","1","2","1","2","0","3","0","3","2","1","3","1","2","0","1","1","4","1","3","3","4","1","1","3","1","4","2","2","3","","1","0","1","1","0","1","1","1","0","1","0","0","0","0","0","3","1","3","3","1","1","1","1","2","3","27","","","","","","","","","","","","","","","","","","","","","","","","","","","","","feedback_test","","","","","","","","","","",""
"693","","f","psychophysics","33","11540186","0.0-7.0-0.0-4.0-0.0-0.5","1","2","1","2","0","3","0","3","2","1","3","1","2","0","1","1","4","1","3","3","4","1","1","3","1","4","2","2","3","","1","0","1","1","0","1","1","1","0","1","0","0","0","0","0","3","1","3","3","1","1","1","1","2","3","27","","","","","","","","","","","","","","","","","","key","f","4.166529556649182","728","476","f","true","img/triangle.png","菱形","三角_菱形","formal_ALT11","","","","","","","","","","","",""
"null","<span style='color:GreenYellow; font-size: 70px;'>正确! </span>","null","html-keyboard-response","34","11540687","0.0-7.0-0.0-4.0-0.0-1.5","1","2","1","2","0","3","0","3","2","1","3","1","2","0","1","1","4","1","3","3","4","1","1","3","1","4","2","2","3","","1","0","1","1","0","1","1","1","0","1","0","0","0","0","0","3","1","3","3","1","1","1","1","2","3","27","","","","","","","","","","","","","","","","","","","","","","","","","","","","","feedback_test","","","","","","","","","","",""
"2230","<style>.context{color:white; font-size: 35px; line-height:40px}</style>                            <div><p class='context'>您正确回答了100% 的试次。</p><p class='context'>您的平均反应时为638毫秒。</p><p class='context'>请按空格键进入休息。</p></div>"," ","html-keyboard-response","35","11542917","0.0-7.0-0.0-4.0-1.0","1","2","1","2","0","3","0","3","2","1","3","1","2","0","1","1","4","1","3","3","4","1","1","3","1","4","2","2","3","","1","0","1","1","0","1","1","1","0","1","0","0","0","0","0","3","1","3","3","1","1","1","1","2","3","27","","","","","","","","","","","","","","","","","","","","","","","","","","","","","","","","","","","","","","","",""
"8194","
                    <p>您当前还剩余1组实验</p>
                    <p>现在是休息时间，当您结束休息后，您可以点击 结束休息 按钮 继续。</p>
                    <p>建议休息时间还剩余<span id=""iii"">60</span>秒</p>","0","html-button-response","36","11551113","0.0-7.0-0.0-4.0-2.0","1","2","1","2","0","3","0","3","2","1","3","1","2","0","1","1","4","1","3","3","4","1","1","3","1","4","2","2","3","","1","0","1","1","0","1","1","1","0","1","0","0","0","0","0","3","1","3","3","1","1","1","1","2","3","27","","","","","","","","","","","","","","","","","","","","","","","","","","","","","","","","","","","","","","","",""
"683","","j","psychophysics","37","11552798","0.0-7.0-0.0-4.0-0.1-0.6","1","2","1","2","0","3","0","3","2","1","3","1","2","0","1","1","4","1","3","3","4","1","1","3","1","4","2","2","3","","1","0","1","1","0","1","1","1","0","1","0","0","0","0","0","3","1","3","3","1","1","1","1","2","3","27","","","","","","","","","","","","","","","","","","key","j","4.19797994987689","728","476","j","true","img/diamond.png","菱形","菱形_菱形","formal_ALT11","","","","","","","","","","","",""
"null","<span style='color:GreenYellow; font-size: 70px;'>正确! </span>","null","html-keyboard-response","38","11553300","0.0-7.0-0.0-4.0-0.1-1.6","1","2","1","2","0","3","0","3","2","1","3","1","2","0","1","1","4","1","3","3","4","1","1","3","1","4","2","2","3","","1","0","1","1","0","1","1","1","0","1","0","0","0","0","0","3","1","3","3","1","1","1","1","2","3","27","","","","","","","","","","","","","","","","","","","","","","","","","","","","","feedback_test","","","","","","","","","","",""
"585","","f","psychophysics","39","11554885","0.0-7.0-0.0-4.0-0.1-0.7","1","2","1","2","0","3","0","3","2","1","3","1","2","0","1","1","4","1","3","3","4","1","1","3","1","4","2","2","3","","1","0","1","1","0","1","1","1","0","1","0","0","0","0","0","3","1","3","3","1","1","1","1","2","3","27","","","","","","","","","","","","","","","","","","key","f","4.163846560847507","728","476","f","true","img/triangle.png","菱形","三角_菱形","formal_ALT11","","","","","","","","","","","",""
"null","<span style='color:GreenYellow; font-size: 70px;'>正确! </span>","null","html-keyboard-response","40","11555386","0.0-7.0-0.0-4.0-0.1-1.7","1","2","1","2","0","3","0","3","2","1","3","1","2","0","1","1","4","1","3","3","4","1","1","3","1","4","2","2","3","","1","0","1","1","0","1","1","1","0","1","0","0","0","0","0","3","1","3","3","1","1","1","1","2","3","27","","","","","","","","","","","","","","","","","","","","","","","","","","","","","feedback_test","","","","","","","","","","",""
"686","","j","psychophysics","41","11557074","0.0-7.0-0.0-4.0-0.1-0.8","1","2","1","2","0","3","0","3","2","1","3","1","2","0","1","1","4","1","3","3","4","1","1","3","1","4","2","2","3","","1","0","1","1","0","1","1","1","0","1","0","0","0","0","0","3","1","3","3","1","1","1","1","2","3","27","","","","","","","","","","","","","","","","","","key","j","4.16649257425809","728","476","j","true","img/diamond.png","菱形","菱形_菱形","formal_ALT11","","","","","","","","","","","",""
"null","<span style='color:GreenYellow; font-size: 70px;'>正确! </span>","null","html-keyboard-response","42","11557575","0.0-7.0-0.0-4.0-0.1-1.8","1","2","1","2","0","3","0","3","2","1","3","1","2","0","1","1","4","1","3","3","4","1","1","3","1","4","2","2","3","","1","0","1","1","0","1","1","1","0","1","0","0","0","0","0","3","1","3","3","1","1","1","1","2","3","27","","","","","","","","","","","","","","","","","","","","","","","","","","","","","feedback_test","","","","","","","","","","",""
"634","","f","psychophysics","43","11559210","0.0-7.0-0.0-4.0-0.1-0.9","1","2","1","2","0","3","0","3","2","1","3","1","2","0","1","1","4","1","3","3","4","1","1","3","1","4","2","2","3","","1","0","1","1","0","1","1","1","0","1","0","0","0","0","0","3","1","3","3","1","1","1","1","2","3","27","","","","","","","","","","","","","","","","","","key","f","4.166575447568084","728","476","f","true","img/square.png","菱形","方形_菱形","formal_ALT11","","","","","","","","","","","",""
"null","<span style='color:GreenYellow; font-size: 70px;'>正确! </span>","null","html-keyboard-response","44","11559711","0.0-7.0-0.0-4.0-0.1-1.9","1","2","1","2","0","3","0","3","2","1","3","1","2","0","1","1","4","1","3","3","4","1","1","3","1","4","2","2","3","","1","0","1","1","0","1","1","1","0","1","0","0","0","0","0","3","1","3","3","1","1","1","1","2","3","27","","","","","","","","","","","","","","","","","","","","","","","","","","","","","feedback_test","","","","","","","","","","",""
"621","","f","psychophysics","45","11561333","0.0-7.0-0.0-4.0-0.1-0.10","1","2","1","2","0","3","0","3","2","1","3","1","2","0","1","1","4","1","3","3","4","1","1","3","1","4","2","2","3","","1","0","1","1","0","1","1","1","0","1","0","0","0","0","0","3","1","3","3","1","1","1","1","2","3","27","","","","","","","","","","","","","","","","","","key","f","4.166492268039854","728","476","f","true","img/triangle.png","方形","三角_方形","formal_ALT11","","","","","","","","","","","",""
"null","<span style='color:GreenYellow; font-size: 70px;'>正确! </span>","null","html-keyboard-response","46","11561834","0.0-7.0-0.0-4.0-0.1-1.10","1","2","1","2","0","3","0","3","2","1","3","1","2","0","1","1","4","1","3","3","4","1","1","3","1","4","2","2","3","","1","0","1","1","0","1","1","1","0","1","0","0","0","0","0","3","1","3","3","1","1","1","1","2","3","27","","","","","","","","","","","","","","","","","","","","","","","","","","","","","feedback_test","","","","","","","","","","",""
"711","","f","psychophysics","47","11563546","0.0-7.0-0.0-4.0-0.1-0.11","1","2","1","2","0","3","0","3","2","1","3","1","2","0","1","1","4","1","3","3","4","1","1","3","1","4","2","2","3","","1","0","1","1","0","1","1","1","0","1","0","0","0","0","0","3","1","3","3","1","1","1","1","2","3","27","","","","","","","","","","","","","","","","","","key","f","4.163699266507602","728","476","f","true","img/square.png","圆形","方形_圆形","formal_ALT11","","","","","","","","","","","",""
"null","<span style='color:GreenYellow; font-size: 70px;'>正确! </span>","null","html-keyboard-response","48","11564048","0.0-7.0-0.0-4.0-0.1-1.11","1","2","1","2","0","3","0","3","2","1","3","1","2","0","1","1","4","1","3","3","4","1","1","3","1","4","2","2","3","","1","0","1","1","0","1","1","1","0","1","0","0","0","0","0","3","1","3","3","1","1","1","1","2","3","27","","","","","","","","","","","","","","","","","","","","","","","","","","","","","feedback_test","","","","","","","","","","",""
"760","<style>.context{color:white; font-size: 35px; line-height:40px}</style>                            <div><p class='context'>您正确回答了100% 的试次。</p><p class='context'>您的平均反应时为653毫秒。</p><p class='context'>请按空格键进入休息。</p></div>"," ","html-keyboard-response","49","11564808","0.0-7.0-0.0-4.0-1.1","1","2","1","2","0","3","0","3","2","1","3","1","2","0","1","1","4","1","3","3","4","1","1","3","1","4","2","2","3","","1","0","1","1","0","1","1","1","0","1","0","0","0","0","0","3","1","3","3","1","1","1","1","2","3","27","","","","","","","","","","","","","","","","","","","","","","","","","","","","","","","","","","","","","","","",""
"12981","
                    <p>您当前还剩余0组实验</p>
                    <p>现在是休息时间，当您结束休息后，您可以点击 结束休息 按钮 继续。</p>
                    <p>建议休息时间还剩余<span id=""iii"">60</span>秒</p>","0","html-button-response","50","11577791","0.0-7.0-0.0-4.0-2.1","1","2","1","2","0","3","0","3","2","1","3","1","2","0","1","1","4","1","3","3","4","1","1","3","1","4","2","2","3","","1","0","1","1","0","1","1","1","0","1","0","0","0","0","0","3","1","3","3","1","1","1","1","2","3","27","","","","","","","","","","","","","","","","","","","","","","","","","","","","","","","","","","","","","","","",""
"1287","
    <p>恭喜您，当前的子任务已经完成。</p>
    <p> <div style = ""color: green""><按空格键继续></div></p>
    "," ","html-keyboard-response","51","11579079","0.0-7.0-0.0-5.0","1","2","1","2","0","3","0","3","2","1","3","1","2","0","1","1","4","1","3","3","4","1","1","3","1","4","2","2","3","","1","0","1","1","0","1","1","1","0","1","0","0","0","0","0","3","1","3","3","1","1","1","1","2","3","27","","","","","","","","","","","","","","","","","","","","","","","","","","","","","","","","","","","","","","","",""
"7593","","","instructions","52","11586671","0.0-7.0-1.1-0.1","1","2","1","2","0","3","0","3","2","1","3","1","2","0","1","1","4","1","3","3","4","1","1","3","1","4","2","2","3","","1","0","1","1","0","1","1","1","0","1","0","0","0","0","0","3","1","3","3","1","1","1","1","2","3","27","","","","","","","","","","","","","","","","","[{""page_index"":0,""viewing_time"":4735},{""page_index"":1,""viewing_time"":1854},{""page_index"":2,""viewing_time"":1004}]","","","","","","","","","","","","","","","","","","","","","","",""
"464","","j","psychophysics","53","11588136","0.0-7.0-1.1-1.1-0.1-0.1","1","2","1","2","0","3","0","3","2","1","3","1","2","0","1","1","4","1","3","3","4","1","1","3","1","4","2","2","3","","1","0","1","1","0","1","1","1","0","1","0","0","0","0","0","3","1","3","3","1","1","1","1","2","3","27","","","","","","","","","","","","","","","","","","key","j","4.16655714285693","728","476","f","false","img/pentagon.png","梯形","五边_梯形","prac_ALT12","","","","","","","","","","","",""
"null","<span style='color:red; font-size: 70px;'>错误! </span>","null","html-keyboard-response","54","11588637","0.0-7.0-1.1-1.1-0.1-1.1","1","2","1","2","0","3","0","3","2","1","3","1","2","0","1","1","4","1","3","3","4","1","1","3","1","4","2","2","3","","1","0","1","1","0","1","1","1","0","1","0","0","0","0","0","3","1","3","3","1","1","1","1","2","3","27","","","","","","","","","","","","","","","","","","","","","","","","","","","","","feedback_test","","","","","","","","","","",""
"710","","f","psychophysics","55","11590348","0.0-7.0-1.1-1.1-0.1-0.2","1","2","1","2","0","3","0","3","2","1","3","1","2","0","1","1","4","1","3","3","4","1","1","3","1","4","2","2","3","","1","0","1","1","0","1","1","1","0","1","0","0","0","0","0","3","1","3","3","1","1","1","1","2","3","27","","","","","","","","","","","","","","","","","","key","f","4.16660635696592","728","476","f","true","img/trapezoid.png","椭圆","梯形_椭圆","prac_ALT12","","","","","","","","","","","",""
"null","<span style='color:GreenYellow; font-size: 70px;'>正确! </span>","null","html-keyboard-response","56","11590851","0.0-7.0-1.1-1.1-0.1-1.2","1","2","1","2","0","3","0","3","2","1","3","1","2","0","1","1","4","1","3","3","4","1","1","3","1","4","2","2","3","","1","0","1","1","0","1","1","1","0","1","0","0","0","0","0","3","1","3","3","1","1","1","1","2","3","27","","","","","","","","","","","","","","","","","","","","","","","","","","","","","feedback_test","","","","","","","","","","",""
"774","","f","psychophysics","57","11592625","0.0-7.0-1.1-1.1-0.1-0.3","1","2","1","2","0","3","0","3","2","1","3","1","2","0","1","1","4","1","3","3","4","1","1","3","1","4","2","2","3","","1","0","1","1","0","1","1","1","0","1","0","0","0","0","0","3","1","3","3","1","1","1","1","2","3","27","","","","","","","","","","","","","","","","","","key","f","4.166575471699273","728","476","f","true","img/pentagon.png","六边","五边_六边","prac_ALT12","","","","","","","","","","","",""
"null","<span style='color:GreenYellow; font-size: 70px;'>正确! </span>","null","html-keyboard-response","58","11593126","0.0-7.0-1.1-1.1-0.1-1.3","1","2","1","2","0","3","0","3","2","1","3","1","2","0","1","1","4","1","3","3","4","1","1","3","1","4","2","2","3","","1","0","1","1","0","1","1","1","0","1","0","0","0","0","0","3","1","3","3","1","1","1","1","2","3","27","","","","","","","","","","","","","","","","","","","","","","","","","","","","","feedback_test","","","","","","","","","","",""
"611","","f","psychophysics","59","11594738","0.0-7.0-1.1-1.1-0.1-0.4","1","2","1","2","0","3","0","3","2","1","3","1","2","0","1","1","4","1","3","3","4","1","1","3","1","4","2","2","3","","1","0","1","1","0","1","1","1","0","1","0","0","0","0","0","3","1","3","3","1","1","1","1","2","3","27","","","","","","","","","","","","","","","","","","key","f","4.166498701298585","728","476","f","true","img/pentagon.png","椭圆","五边_椭圆","prac_ALT12","","","","","","","","","","","",""
"null","<span style='color:GreenYellow; font-size: 70px;'>正确! </span>","null","html-keyboard-response","60","11595239","0.0-7.0-1.1-1.1-0.1-1.4","1","2","1","2","0","3","0","3","2","1","3","1","2","0","1","1","4","1","3","3","4","1","1","3","1","4","2","2","3","","1","0","1","1","0","1","1","1","0","1","0","0","0","0","0","3","1","3","3","1","1","1","1","2","3","27","","","","","","","","","","","","","","","","","","","","","","","","","","","","","feedback_test","","","","","","","","","","",""
"526","","j","psychophysics","61","11596767","0.0-7.0-1.1-1.1-0.1-0.5","1","2","1","2","0","3","0","3","2","1","3","1","2","0","1","1","4","1","3","3","4","1","1","3","1","4","2","2","3","","1","0","1","1","0","1","1","1","0","1","0","0","0","0","0","3","1","3","3","1","1","1","1","2","3","27","","","","","","","","","","","","","","","","","","key","j","4.166550684929506","728","476","j","true","img/ellipse.png","椭圆","椭圆_椭圆","prac_ALT12","","","","","","","","","","","",""
"null","<span style='color:GreenYellow; font-size: 70px;'>正确! </span>","null","html-keyboard-response","62","11597268","0.0-7.0-1.1-1.1-0.1-1.5","1","2","1","2","0","3","0","3","2","1","3","1","2","0","1","1","4","1","3","3","4","1","1","3","1","4","2","2","3","","1","0","1","1","0","1","1","1","0","1","0","0","0","0","0","3","1","3","3","1","1","1","1","2","3","27","","","","","","","","","","","","","","","","","","","","","","","","","","","","","feedback_test","","","","","","","","","","",""
"626","","j","psychophysics","63","11598895","0.0-7.0-1.1-1.1-0.1-0.6","1","2","1","2","0","3","0","3","2","1","3","1","2","0","1","1","4","1","3","3","4","1","1","3","1","4","2","2","3","","1","0","1","1","0","1","1","1","0","1","0","0","0","0","0","3","1","3","3","1","1","1","1","2","3","27","","","","","","","","","","","","","","","","","","key","j","4.166508997428999","728","476","j","true","img/hexagon.png","六边","六边_六边","prac_ALT12","","","","","","","","","","","",""
"null","<span style='color:GreenYellow; font-size: 70px;'>正确! </span>","null","html-keyboard-response","64","11599396","0.0-7.0-1.1-1.1-0.1-1.6","1","2","1","2","0","3","0","3","2","1","3","1","2","0","1","1","4","1","3","3","4","1","1","3","1","4","2","2","3","","1","0","1","1","0","1","1","1","0","1","0","0","0","0","0","3","1","3","3","1","1","1","1","2","3","27","","","","","","","","","","","","","","","","","","","","","","","","","","","","","feedback_test","","","","","","","","","","",""
"1232","<style>.context{color:white; font-size: 35px; line-height:40px}</style>                          <div><p class='context'>您正确回答了83% 的试次。</p><p class='context'>您的平均反应时为649毫秒。</p><p class='context'>恭喜您完成练习。按空格键进入正式实验。</p><p class='footer' style='font-size: 35px; line-height:40px;'>请在进入正式实验实验之前将您的<span style='color: lightgreen;'>食指</span>放在电脑键盘的相应键位上进行按键。</p>"," ","html-keyboard-response","65","11600629","0.0-7.0-1.1-2.1","1","2","1","2","0","3","0","3","2","1","3","1","2","0","1","1","4","1","3","3","4","1","1","3","1","4","2","2","3","","1","0","1","1","0","1","1","1","0","1","0","0","0","0","0","3","1","3","3","1","1","1","1","2","3","27","","","","","","","","","","","","","","","","","","","","","","","","","","","","","","","","","","","","","","","",""
"2266","
  <p>请您将手指放在按键上，准备进入正式的匹配任务。</p>
  <p> <div style = ""color: green""><按空格键进入下一阶段的匹配任务></div></p>
  "," ","html-keyboard-response","66","11602897","0.0-7.0-1.1-3.1","1","2","1","2","0","3","0","3","2","1","3","1","2","0","1","1","4","1","3","3","4","1","1","3","1","4","2","2","3","","1","0","1","1","0","1","1","1","0","1","0","0","0","0","0","3","1","3","3","1","1","1","1","2","3","27","","","","","","","","","","","","","","","","","","","","","","","","","","","","","","","","","","","","","","","",""
"972","","j","psychophysics","67","11604870","0.0-7.0-1.1-4.1-0.1-0.1","1","2","1","2","0","3","0","3","2","1","3","1","2","0","1","1","4","1","3","3","4","1","1","3","1","4","2","2","3","","1","0","1","1","0","1","1","1","0","1","0","0","0","0","0","3","1","3","3","1","1","1","1","2","3","27","","","","","","","","","","","","","","","","","","key","j","4.166572033897263","728","476","j","true","img/pentagon.png","五边","五边_五边","formal_ALT12","","","","","","","","","","","",""
"null","<span style='color:GreenYellow; font-size: 70px;'>正确! </span>","null","html-keyboard-response","68","11605371","0.0-7.0-1.1-4.1-0.1-1.1","1","2","1","2","0","3","0","3","2","1","3","1","2","0","1","1","4","1","3","3","4","1","1","3","1","4","2","2","3","","1","0","1","1","0","1","1","1","0","1","0","0","0","0","0","3","1","3","3","1","1","1","1","2","3","27","","","","","","","","","","","","","","","","","","","","","","","","","","","","","feedback_test","","","","","","","","","","",""
"651","","j","psychophysics","69","11607022","0.0-7.0-1.1-4.1-0.1-0.2","1","2","1","2","0","3","0","3","2","1","3","1","2","0","1","1","4","1","3","3","4","1","1","3","1","4","2","2","3","","1","0","1","1","0","1","1","1","0","1","0","0","0","0","0","3","1","3","3","1","1","1","1","2","3","27","","","","","","","","","","","","","","","","","","key","j","4.1665721518989605","728","476","j","true","img/pentagon.png","五边","五边_五边","formal_ALT12","","","","","","","","","","","",""
"null","<span style='color:GreenYellow; font-size: 70px;'>正确! </span>","null","html-keyboard-response","70","11607524","0.0-7.0-1.1-4.1-0.1-1.2","1","2","1","2","0","3","0","3","2","1","3","1","2","0","1","1","4","1","3","3","4","1","1","3","1","4","2","2","3","","1","0","1","1","0","1","1","1","0","1","0","0","0","0","0","3","1","3","3","1","1","1","1","2","3","27","","","","","","","","","","","","","","","","","","","","","","","","","","","","","feedback_test","","","","","","","","","","",""
"585","","j","psychophysics","71","11609110","0.0-7.0-1.1-4.1-0.1-0.3","1","2","1","2","0","3","0","3","2","1","3","1","2","0","1","1","4","1","3","3","4","1","1","3","1","4","2","2","3","","1","0","1","1","0","1","1","1","0","1","0","0","0","0","0","3","1","3","3","1","1","1","1","2","3","27","","","","","","","","","","","","","","","","","","key","j","4.1639050131953645","728","476","j","true","img/trapezoid.png","梯形","梯形_梯形","formal_ALT12","","","","","","","","","","","",""
"null","<span style='color:GreenYellow; font-size: 70px;'>正确! </span>","null","html-keyboard-response","72","11609611","0.0-7.0-1.1-4.1-0.1-1.3","1","2","1","2","0","3","0","3","2","1","3","1","2","0","1","1","4","1","3","3","4","1","1","3","1","4","2","2","3","","1","0","1","1","0","1","1","1","0","1","0","0","0","0","0","3","1","3","3","1","1","1","1","2","3","27","","","","","","","","","","","","","","","","","","","","","","","","","","","","","feedback_test","","","","","","","","","","",""
"810","","f","psychophysics","73","11611423","0.0-7.0-1.1-4.1-0.1-0.4","1","2","1","2","0","3","0","3","2","1","3","1","2","0","1","1","4","1","3","3","4","1","1","3","1","4","2","2","3","","1","0","1","1","0","1","1","1","0","1","0","0","0","0","0","3","1","3","3","1","1","1","1","2","3","27","","","","","","","","","","","","","","","","","","key","f","4.166599078339949","728","476","f","true","img/pentagon.png","梯形","五边_梯形","formal_ALT12","","","","","","","","","","","",""
"null","<span style='color:GreenYellow; font-size: 70px;'>正确! </span>","null","html-keyboard-response","74","11611924","0.0-7.0-1.1-4.1-0.1-1.4","1","2","1","2","0","3","0","3","2","1","3","1","2","0","1","1","4","1","3","3","4","1","1","3","1","4","2","2","3","","1","0","1","1","0","1","1","1","0","1","0","0","0","0","0","3","1","3","3","1","1","1","1","2","3","27","","","","","","","","","","","","","","","","","","","","","","","","","","","","","feedback_test","","","","","","","","","","",""
"741","","f","psychophysics","75","11613666","0.0-7.0-1.1-4.1-0.1-0.5","1","2","1","2","0","3","0","3","2","1","3","1","2","0","1","1","4","1","3","3","4","1","1","3","1","4","2","2","3","","1","0","1","1","0","1","1","1","0","1","0","0","0","0","0","3","1","3","3","1","1","1","1","2","3","27","","","","","","","","","","","","","","","","","","key","f","4.166640287769927","728","476","f","true","img/hexagon.png","梯形","六边_梯形","formal_ALT12","","","","","","","","","","","",""
"null","<span style='color:GreenYellow; font-size: 70px;'>正确! </span>","null","html-keyboard-response","76","11614168","0.0-7.0-1.1-4.1-0.1-1.5","1","2","1","2","0","3","0","3","2","1","3","1","2","0","1","1","4","1","3","3","4","1","1","3","1","4","2","2","3","","1","0","1","1","0","1","1","1","0","1","0","0","0","0","0","3","1","3","3","1","1","1","1","2","3","27","","","","","","","","","","","","","","","","","","","","","","","","","","","","","feedback_test","","","","","","","","","","",""
"506","","j","psychophysics","77","11615675","0.0-7.0-1.1-4.1-0.1-0.6","1","2","1","2","0","3","0","3","2","1","3","1","2","0","1","1","4","1","3","3","4","1","1","3","1","4","2","2","3","","1","0","1","1","0","1","1","1","0","1","0","0","0","0","0","3","1","3","3","1","1","1","1","2","3","27","","","","","","","","","","","","","","","","","","key","j","4.201523809518967","728","476","j","true","img/ellipse.png","椭圆","椭圆_椭圆","formal_ALT12","","","","","","","","","","","",""
"null","<span style='color:GreenYellow; font-size: 70px;'>正确! </span>","null","html-keyboard-response","78","11616176","0.0-7.0-1.1-4.1-0.1-1.6","1","2","1","2","0","3","0","3","2","1","3","1","2","0","1","1","4","1","3","3","4","1","1","3","1","4","2","2","3","","1","0","1","1","0","1","1","1","0","1","0","0","0","0","0","3","1","3","3","1","1","1","1","2","3","27","","","","","","","","","","","","","","","","","","","","","","","","","","","","","feedback_test","","","","","","","","","","",""
"828","<style>.context{color:white; font-size: 35px; line-height:40px}</style>                          <div><p class='context'>您正确回答了100% 的试次。</p><p class='context'>您的平均反应时为711毫秒。</p><p class='context'>请按空格键进入休息。</p></div>"," ","html-keyboard-response","79","11617005","0.0-7.0-1.1-4.1-1.1","1","2","1","2","0","3","0","3","2","1","3","1","2","0","1","1","4","1","3","3","4","1","1","3","1","4","2","2","3","","1","0","1","1","0","1","1","1","0","1","0","0","0","0","0","3","1","3","3","1","1","1","1","2","3","27","","","","","","","","","","","","","","","","","","","","","","","","","","","","","","","","","","","","","","","",""
"5179","
                  <p>您当前还剩余1组实验</p>
                  <p>现在是休息时间，当您结束休息后，您可以点击 结束休息 按钮 继续。</p>
                  <p>建议休息时间还剩余<span id=""iii"">60</span>秒</p>","0","html-button-response","80","11622186","0.0-7.0-1.1-4.1-2.1","1","2","1","2","0","3","0","3","2","1","3","1","2","0","1","1","4","1","3","3","4","1","1","3","1","4","2","2","3","","1","0","1","1","0","1","1","1","0","1","0","0","0","0","0","3","1","3","3","1","1","1","1","2","3","27","","","","","","","","","","","","","","","","","","","","","","","","","","","","","","","","","","","","","","","",""
"751","","f","psychophysics","81","11623937","0.0-7.0-1.1-4.1-0.2-0.7","1","2","1","2","0","3","0","3","2","1","3","1","2","0","1","1","4","1","3","3","4","1","1","3","1","4","2","2","3","","1","0","1","1","0","1","1","1","0","1","0","0","0","0","0","3","1","3","3","1","1","1","1","2","3","27","","","","","","","","","","","","","","","","","","key","f","4.1665632458257","728","476","f","true","img/hexagon.png","五边","六边_五边","formal_ALT12","","","","","","","","","","","",""
"null","<span style='color:GreenYellow; font-size: 70px;'>正确! </span>","null","html-keyboard-response","82","11624438","0.0-7.0-1.1-4.1-0.2-1.7","1","2","1","2","0","3","0","3","2","1","3","1","2","0","1","1","4","1","3","3","4","1","1","3","1","4","2","2","3","","1","0","1","1","0","1","1","1","0","1","0","0","0","0","0","3","1","3","3","1","1","1","1","2","3","27","","","","","","","","","","","","","","","","","","","","","","","","","","","","","feedback_test","","","","","","","","","","",""
"641","","j","psychophysics","83","11626080","0.0-7.0-1.1-4.1-0.2-0.8","1","2","1","2","0","3","0","3","2","1","3","1","2","0","1","1","4","1","3","3","4","1","1","3","1","4","2","2","3","","1","0","1","1","0","1","1","1","0","1","0","0","0","0","0","3","1","3","3","1","1","1","1","2","3","27","","","","","","","","","","","","","","","","","","key","j","4.166585241731152","728","476","j","true","img/pentagon.png","五边","五边_五边","formal_ALT12","","","","","","","","","","","",""
"null","<span style='color:GreenYellow; font-size: 70px;'>正确! </span>","null","html-keyboard-response","84","11626581","0.0-7.0-1.1-4.1-0.2-1.8","1","2","1","2","0","3","0","3","2","1","3","1","2","0","1","1","4","1","3","3","4","1","1","3","1","4","2","2","3","","1","0","1","1","0","1","1","1","0","1","0","0","0","0","0","3","1","3","3","1","1","1","1","2","3","27","","","","","","","","","","","","","","","","","","","","","","","","","","","","","feedback_test","","","","","","","","","","",""
"725","","j","psychophysics","85","11628307","0.0-7.0-1.1-4.1-0.2-0.9","1","2","1","2","0","3","0","3","2","1","3","1","2","0","1","1","4","1","3","3","4","1","1","3","1","4","2","2","3","","1","0","1","1","0","1","1","1","0","1","0","0","0","0","0","3","1","3","3","1","1","1","1","2","3","27","","","","","","","","","","","","","","","","","","key","j","4.166527845033109","728","476","j","true","img/trapezoid.png","梯形","梯形_梯形","formal_ALT12","","","","","","","","","","","",""
"null","<span style='color:GreenYellow; font-size: 70px;'>正确! </span>","null","html-keyboard-response","86","11628809","0.0-7.0-1.1-4.1-0.2-1.9","1","2","1","2","0","3","0","3","2","1","3","1","2","0","1","1","4","1","3","3","4","1","1","3","1","4","2","2","3","","1","0","1","1","0","1","1","1","0","1","0","0","0","0","0","3","1","3","3","1","1","1","1","2","3","27","","","","","","","","","","","","","","","","","","","","","","","","","","","","","feedback_test","","","","","","","","","","",""
"747","","f","psychophysics","87","11630556","0.0-7.0-1.1-4.1-0.2-0.10","1","2","1","2","0","3","0","3","2","1","3","1","2","0","1","1","4","1","3","3","4","1","1","3","1","4","2","2","3","","1","0","1","1","0","1","1","1","0","1","0","0","0","0","0","3","1","3","3","1","1","1","1","2","3","27","","","","","","","","","","","","","","","","","","key","f","4.16651913875705","728","476","f","true","img/trapezoid.png","椭圆","梯形_椭圆","formal_ALT12","","","","","","","","","","","",""
"null","<span style='color:GreenYellow; font-size: 70px;'>正确! </span>","null","html-keyboard-response","88","11631058","0.0-7.0-1.1-4.1-0.2-1.10","1","2","1","2","0","3","0","3","2","1","3","1","2","0","1","1","4","1","3","3","4","1","1","3","1","4","2","2","3","","1","0","1","1","0","1","1","1","0","1","0","0","0","0","0","3","1","3","3","1","1","1","1","2","3","27","","","","","","","","","","","","","","","","","","","","","","","","","","","","","feedback_test","","","","","","","","","","",""
"545","","j","psychophysics","89","11632604","0.0-7.0-1.1-4.1-0.2-0.11","1","2","1","2","0","3","0","3","2","1","3","1","2","0","1","1","4","1","3","3","4","1","1","3","1","4","2","2","3","","1","0","1","1","0","1","1","1","0","1","0","0","0","0","0","3","1","3","3","1","1","1","1","2","3","27","","","","","","","","","","","","","","","","","","key","j","4.166615176153417","728","476","j","true","img/pentagon.png","五边","五边_五边","formal_ALT12","","","","","","","","","","","",""
"null","<span style='color:GreenYellow; font-size: 70px;'>正确! </span>","null","html-keyboard-response","90","11633105","0.0-7.0-1.1-4.1-0.2-1.11","1","2","1","2","0","3","0","3","2","1","3","1","2","0","1","1","4","1","3","3","4","1","1","3","1","4","2","2","3","","1","0","1","1","0","1","1","1","0","1","0","0","0","0","0","3","1","3","3","1","1","1","1","2","3","27","","","","","","","","","","","","","","","","","","","","","","","","","","","","","feedback_test","","","","","","","","","","",""
"691","","f","psychophysics","91","11634797","0.0-7.0-1.1-4.1-0.2-0.12","1","2","1","2","0","3","0","3","2","1","3","1","2","0","1","1","4","1","3","3","4","1","1","3","1","4","2","2","3","","1","0","1","1","0","1","1","1","0","1","0","0","0","0","0","3","1","3","3","1","1","1","1","2","3","27","","","","","","","","","","","","","","","","","","key","f","4.1665222772240345","728","476","f","true","img/ellipse.png","六边","椭圆_六边","formal_ALT12","","","","","","","","","","","",""
"null","<span style='color:GreenYellow; font-size: 70px;'>正确! </span>","null","html-keyboard-response","92","11635298","0.0-7.0-1.1-4.1-0.2-1.12","1","2","1","2","0","3","0","3","2","1","3","1","2","0","1","1","4","1","3","3","4","1","1","3","1","4","2","2","3","","1","0","1","1","0","1","1","1","0","1","0","0","0","0","0","3","1","3","3","1","1","1","1","2","3","27","","","","","","","","","","","","","","","","","","","","","","","","","","","","","feedback_test","","","","","","","","","","",""
"809","<style>.context{color:white; font-size: 35px; line-height:40px}</style>                          <div><p class='context'>您正确回答了100% 的试次。</p><p class='context'>您的平均反应时为683毫秒。</p><p class='context'>请按空格键进入休息。</p></div>"," ","html-keyboard-response","93","11636108","0.0-7.0-1.1-4.1-1.2","1","2","1","2","0","3","0","3","2","1","3","1","2","0","1","1","4","1","3","3","4","1","1","3","1","4","2","2","3","","1","0","1","1","0","1","1","1","0","1","0","0","0","0","0","3","1","3","3","1","1","1","1","2","3","27","","","","","","","","","","","","","","","","","","","","","","","","","","","","","","","","","","","","","","","",""
"2591","
                  <p>您当前还剩余0组实验</p>
                  <p>现在是休息时间，当您结束休息后，您可以点击 结束休息 按钮 继续。</p>
                  <p>建议休息时间还剩余<span id=""iii"">60</span>秒</p>","0","html-button-response","94","11638701","0.0-7.0-1.1-4.1-2.2","1","2","1","2","0","3","0","3","2","1","3","1","2","0","1","1","4","1","3","3","4","1","1","3","1","4","2","2","3","","1","0","1","1","0","1","1","1","0","1","0","0","0","0","0","3","1","3","3","1","1","1","1","2","3","27","","","","","","","","","","","","","","","","","","","","","","","","","","","","","","","","","","","","","","","",""
"615","
  <p>恭喜您，当前子任务已经完成。</p>
  <p> <div style = ""color: green""><按空格键继续></div></p>
  "," ","html-keyboard-response","95","11639317","0.0-7.0-1.1-5.1","1","2","1","2","0","3","0","3","2","1","3","1","2","0","1","1","4","1","3","3","4","1","1","3","1","4","2","2","3","","1","0","1","1","0","1","1","1","0","1","0","0","0","0","0","3","1","3","3","1","1","1","1","2","3","27","","","","","","","","","","","","","","","","","","","","","","","","","","","","","","","","","","","","","","","",""
"24359","<p style='color:white;'>现在是休息时间，当您结束休息后，您可以点击 结束休息 按钮 继续。</p>","0","html-button-response","96","11663676","0.0-8.0","1","2","1","2","0","3","0","3","2","1","3","1","2","0","1","1","4","1","3","3","4","1","1","3","1","4","2","2","3","","1","0","1","1","0","1","1","1","0","1","0","0","0","0","0","3","1","3","3","1","1","1","1","2","3","27","","","","","","","","","","","","","","","","","","","","","","","","","","","","","rest_time","rest_time","Tue Jul 18 2023 18:26:55 GMT+0800 (中国标准时间)","","","","","","","","",""
"18654","
    <h3>词语分类任务</h3>
    <p>在接下来的任务中，你需要对一系列词语进行分类。<br/>
    请先熟悉这些词语，这有利于你完成接下来的任务。</p>
    <table align=""center"" border=1 cellpadding=3 cellspacing=0>
    <tr> <th>类别</th> <th>词语</th> </tr>
    <tr> <td>&emsp;积极&emsp;</td> <td>&emsp;能干、全能、全才、高效、精干、天才&emsp;</td> </tr>
    <tr> <td>&emsp;消极&emsp;</td> <td>&emsp;无能、低能、废物、拙笨、愚钝、蠢笨&emsp;</td> </tr>
    <tr> <td>&emsp;自我&emsp;</td> <td>&emsp;我、我的、自己、自己的、本人、本人的&emsp;</td> </tr>
    <tr> <td>&emsp;他人&emsp;</td> <td>&emsp;他、他的、别人、别人的、他人、他人的&emsp;</td> </tr>
    </table><br/>","0","html-button-response","97","11682331","0.0-9.0-0.0-0.0","1","2","1","2","0","3","0","3","2","1","3","1","2","0","1","1","4","1","3","3","4","1","1","3","1","4","2","2","3","","1","0","1","1","0","1","1","1","0","1","0","0","0","0","0","3","1","3","3","1","1","1","1","2","3","27","","","","","","","","","","","","","","","","","","","","","","","","","","","","","","","","1","2","","","","","","",""
"1601","
    <div class=""tag-bottom""><p>
    —— 任务1：对“他人”词和“自我”词分类 ——<br/>
    不同词语会出现在屏幕中央，类别标签将始终显示在屏幕上方<br/>   
    <span style=""color:#FFD866""><b>请根据上方标签的提示，尽可能正确并且快速地做出按键反应</b></span><br/>
    当按键错误时屏幕中会出现<span style=""color:red""> X </span>，需要按另一个键纠正才能继续<br/><br/>
    请把双手食指分别放在键盘的“E”键和“I”键上<br/>
    按<空格键>开始
    </p></div>"," ","html-keyboard-response","98","11683933","0.0-9.0-0.0-1.0","1","2","1","2","0","3","0","3","2","1","3","1","2","0","1","1","4","1","3","3","4","1","1","3","1","4","2","2","3","","1","0","1","1","0","1","1","1","0","1","0","0","0","0","0","3","1","3","3","1","1","1","1","2","3","27","","","","","","","","","","","","","","","","","","","","","","","","","","","","","","","","","","","","","","","",""
"null","","null","html-keyboard-response","99","11683936","0.0-9.0-0.0-2.0-0.0","1","2","1","2","0","3","0","3","2","1","3","1","2","0","1","1","4","1","3","3","4","1","1","3","1","4","2","2","3","","1","0","1","1","0","1","1","1","0","1","0","0","0","0","0","3","1","3","3","1","1","1","1","2","3","27","","","","","","","","","","","","","","","","","","","","","","","","","","","","","","","","","","","","","","","",""
"4138","<p style=""color:rgb(150, 250, 100); font-size: 35px;"">别人的</p>","e","categorize-html","100","11688076","0.0-9.0-0.0-2.0-1.0","1","2","1","2","0","3","0","3","2","1","3","1","2","0","1","1","4","1","3","3","4","1","1","3","1","4","2","2","3","","1","0","1","1","0","1","1","1","0","1","0","0","0","0","0","3","1","3","3","1","1","1","1","2","3","27","","","","","","","","","","","","","","","","","","","","","","","","true","","","","","","","","","","1","4138","","","","",""
"null","","null","html-keyboard-response","101","11688079","0.0-9.0-0.0-2.0-0.1","1","2","1","2","0","3","0","3","2","1","3","1","2","0","1","1","4","1","3","3","4","1","1","3","1","4","2","2","3","","1","0","1","1","0","1","1","1","0","1","0","0","0","0","0","3","1","3","3","1","1","1","1","2","3","27","","","","","","","","","","","","","","","","","","","","","","","","","","","","","","","","","","","","","","","",""
"2128","<p style=""color:rgb(150, 250, 100); font-size: 35px;"">别人</p>","e","categorize-html","102","11690209","0.0-9.0-0.0-2.0-1.1","1","2","1","2","0","3","0","3","2","1","3","1","2","0","1","1","4","1","3","3","4","1","1","3","1","4","2","2","3","","1","0","1","1","0","1","1","1","0","1","0","0","0","0","0","3","1","3","3","1","1","1","1","2","3","27","","","","","","","","","","","","","","","","","","","","","","","","true","","","","","","","","","","1","2128","","","","",""
"null","","null","html-keyboard-response","103","11690211","0.0-9.0-0.0-2.0-0.2","1","2","1","2","0","3","0","3","2","1","3","1","2","0","1","1","4","1","3","3","4","1","1","3","1","4","2","2","3","","1","0","1","1","0","1","1","1","0","1","0","0","0","0","0","3","1","3","3","1","1","1","1","2","3","27","","","","","","","","","","","","","","","","","","","","","","","","","","","","","","","","","","","","","","","",""
"625","<p style=""color:rgb(150, 250, 100); font-size: 35px;"">他人</p>","e","categorize-html","104","11690838","0.0-9.0-0.0-2.0-1.2","1","2","1","2","0","3","0","3","2","1","3","1","2","0","1","1","4","1","3","3","4","1","1","3","1","4","2","2","3","","1","0","1","1","0","1","1","1","0","1","0","0","0","0","0","3","1","3","3","1","1","1","1","2","3","27","","","","","","","","","","","","","","","","","","","","","","","","true","","","","","","","","","","1","625","","","","",""
"null","","null","html-keyboard-response","105","11690840","0.0-9.0-0.0-2.0-0.3","1","2","1","2","0","3","0","3","2","1","3","1","2","0","1","1","4","1","3","3","4","1","1","3","1","4","2","2","3","","1","0","1","1","0","1","1","1","0","1","0","0","0","0","0","3","1","3","3","1","1","1","1","2","3","27","","","","","","","","","","","","","","","","","","","","","","","","","","","","","","","","","","","","","","","",""
"2553","<p style=""color:rgb(150, 250, 100); font-size: 35px;"">本人的</p>","i","categorize-html","106","11693394","0.0-9.0-0.0-2.0-1.3","1","2","1","2","0","3","0","3","2","1","3","1","2","0","1","1","4","1","3","3","4","1","1","3","1","4","2","2","3","","1","0","1","1","0","1","1","1","0","1","0","0","0","0","0","3","1","3","3","1","1","1","1","2","3","27","","","","","","","","","","","","","","","","","","","","","","","","true","","","","","","","","","","1","2553","","","","",""
"null","","null","html-keyboard-response","107","11693398","0.0-9.0-0.0-2.0-0.4","1","2","1","2","0","3","0","3","2","1","3","1","2","0","1","1","4","1","3","3","4","1","1","3","1","4","2","2","3","","1","0","1","1","0","1","1","1","0","1","0","0","0","0","0","3","1","3","3","1","1","1","1","2","3","27","","","","","","","","","","","","","","","","","","","","","","","","","","","","","","","","","","","","","","","",""
"1518","<p style=""color:rgb(150, 250, 100); font-size: 35px;"">他人的</p>","e","categorize-html","108","11694917","0.0-9.0-0.0-2.0-1.4","1","2","1","2","0","3","0","3","2","1","3","1","2","0","1","1","4","1","3","3","4","1","1","3","1","4","2","2","3","","1","0","1","1","0","1","1","1","0","1","0","0","0","0","0","3","1","3","3","1","1","1","1","2","3","27","","","","","","","","","","","","","","","","","","","","","","","","true","","","","","","","","","","1","1518","","","","",""
"null","","null","html-keyboard-response","109","11694920","0.0-9.0-0.0-2.0-0.5","1","2","1","2","0","3","0","3","2","1","3","1","2","0","1","1","4","1","3","3","4","1","1","3","1","4","2","2","3","","1","0","1","1","0","1","1","1","0","1","0","0","0","0","0","3","1","3","3","1","1","1","1","2","3","27","","","","","","","","","","","","","","","","","","","","","","","","","","","","","","","","","","","","","","","",""
"662","<p style=""color:rgb(150, 250, 100); font-size: 35px;"">自己的</p>","i","categorize-html","110","11695583","0.0-9.0-0.0-2.0-1.5","1","2","1","2","0","3","0","3","2","1","3","1","2","0","1","1","4","1","3","3","4","1","1","3","1","4","2","2","3","","1","0","1","1","0","1","1","1","0","1","0","0","0","0","0","3","1","3","3","1","1","1","1","2","3","27","","","","","","","","","","","","","","","","","","","","","","","","true","","","","","","","","","","1","662","","","","",""
"null","","null","html-keyboard-response","111","11695585","0.0-9.0-0.0-2.0-0.6","1","2","1","2","0","3","0","3","2","1","3","1","2","0","1","1","4","1","3","3","4","1","1","3","1","4","2","2","3","","1","0","1","1","0","1","1","1","0","1","0","0","0","0","0","3","1","3","3","1","1","1","1","2","3","27","","","","","","","","","","","","","","","","","","","","","","","","","","","","","","","","","","","","","","","",""
"809","<p style=""color:rgb(150, 250, 100); font-size: 35px;"">他</p>","e","categorize-html","112","11696395","0.0-9.0-0.0-2.0-1.6","1","2","1","2","0","3","0","3","2","1","3","1","2","0","1","1","4","1","3","3","4","1","1","3","1","4","2","2","3","","1","0","1","1","0","1","1","1","0","1","0","0","0","0","0","3","1","3","3","1","1","1","1","2","3","27","","","","","","","","","","","","","","","","","","","","","","","","true","","","","","","","","","","1","809","","","","",""
"null","","null","html-keyboard-response","113","11696398","0.0-9.0-0.0-2.0-0.7","1","2","1","2","0","3","0","3","2","1","3","1","2","0","1","1","4","1","3","3","4","1","1","3","1","4","2","2","3","","1","0","1","1","0","1","1","1","0","1","0","0","0","0","0","3","1","3","3","1","1","1","1","2","3","27","","","","","","","","","","","","","","","","","","","","","","","","","","","","","","","","","","","","","","","",""
"698","<p style=""color:rgb(150, 250, 100); font-size: 35px;"">我的</p>","i","categorize-html","114","11697097","0.0-9.0-0.0-2.0-1.7","1","2","1","2","0","3","0","3","2","1","3","1","2","0","1","1","4","1","3","3","4","1","1","3","1","4","2","2","3","","1","0","1","1","0","1","1","1","0","1","0","0","0","0","0","3","1","3","3","1","1","1","1","2","3","27","","","","","","","","","","","","","","","","","","","","","","","","true","","","","","","","","","","1","698","","","","",""
"1231","
    <div class=""tag-bottom""><p>
    —— 任务2：对“积极”词和“消极”词分类 ——<br/>   
    <span style=""color:#78DCE8""><b>注意上方，类别标签和需要分类的词语都已经改变</b></span><br/>
    <span style=""color:#FFD866""><b>请根据上方标签的提示，尽可能正确并且快速地做出按键反应</b></span><br/>
    当按键错误时屏幕中会出现<span style=""color:red""> X </span>，需要按另一个键纠正才能继续<br/><br/>
    请把双手食指分别放在键盘的“E”键和“I”键上<br/>
    按<空格键>开始
    </p></div>"," ","html-keyboard-response","115","11698328","0.0-9.0-0.0-3.0","1","2","1","2","0","3","0","3","2","1","3","1","2","0","1","1","4","1","3","3","4","1","1","3","1","4","2","2","3","","1","0","1","1","0","1","1","1","0","1","0","0","0","0","0","3","1","3","3","1","1","1","1","2","3","27","","","","","","","","","","","","","","","","","","","","","","","","","","","","","","","","","","","","","","","",""
"null","","null","html-keyboard-response","116","11698331","0.0-9.0-0.0-4.0-0.0","1","2","1","2","0","3","0","3","2","1","3","1","2","0","1","1","4","1","3","3","4","1","1","3","1","4","2","2","3","","1","0","1","1","0","1","1","1","0","1","0","0","0","0","0","3","1","3","3","1","1","1","1","2","3","27","","","","","","","","","","","","","","","","","","","","","","","","","","","","","","","","","","","","","","","",""
"1072","<p style=""color:white; font-size: 35px;"">全能</p>","e","categorize-html","117","11699405","0.0-9.0-0.0-4.0-1.0","1","2","1","2","0","3","0","3","2","1","3","1","2","0","1","1","4","1","3","3","4","1","1","3","1","4","2","2","3","","1","0","1","1","0","1","1","1","0","1","0","0","0","0","0","3","1","3","3","1","1","1","1","2","3","27","","","","","","","","","","","","","","","","","","","","","","","","true","","","","","","","","","","2","1072","","","","",""
"null","","null","html-keyboard-response","118","11699408","0.0-9.0-0.0-4.0-0.1","1","2","1","2","0","3","0","3","2","1","3","1","2","0","1","1","4","1","3","3","4","1","1","3","1","4","2","2","3","","1","0","1","1","0","1","1","1","0","1","0","0","0","0","0","3","1","3","3","1","1","1","1","2","3","27","","","","","","","","","","","","","","","","","","","","","","","","","","","","","","","","","","","","","","","",""
"593","<p style=""color:white; font-size: 35px;"">全才</p>","e","categorize-html","119","11700003","0.0-9.0-0.0-4.0-1.1","1","2","1","2","0","3","0","3","2","1","3","1","2","0","1","1","4","1","3","3","4","1","1","3","1","4","2","2","3","","1","0","1","1","0","1","1","1","0","1","0","0","0","0","0","3","1","3","3","1","1","1","1","2","3","27","","","","","","","","","","","","","","","","","","","","","","","","true","","","","","","","","","","2","593","","","","",""
"null","","null","html-keyboard-response","120","11700005","0.0-9.0-0.0-4.0-0.2","1","2","1","2","0","3","0","3","2","1","3","1","2","0","1","1","4","1","3","3","4","1","1","3","1","4","2","2","3","","1","0","1","1","0","1","1","1","0","1","0","0","0","0","0","3","1","3","3","1","1","1","1","2","3","27","","","","","","","","","","","","","","","","","","","","","","","","","","","","","","","","","","","","","","","",""
"754","<p style=""color:white; font-size: 35px;"">蠢笨</p>","i","categorize-html","121","11700760","0.0-9.0-0.0-4.0-1.2","1","2","1","2","0","3","0","3","2","1","3","1","2","0","1","1","4","1","3","3","4","1","1","3","1","4","2","2","3","","1","0","1","1","0","1","1","1","0","1","0","0","0","0","0","3","1","3","3","1","1","1","1","2","3","27","","","","","","","","","","","","","","","","","","","","","","","","true","","","","","","","","","","2","754","","","","",""
"null","","null","html-keyboard-response","122","11700764","0.0-9.0-0.0-4.0-0.3","1","2","1","2","0","3","0","3","2","1","3","1","2","0","1","1","4","1","3","3","4","1","1","3","1","4","2","2","3","","1","0","1","1","0","1","1","1","0","1","0","0","0","0","0","3","1","3","3","1","1","1","1","2","3","27","","","","","","","","","","","","","","","","","","","","","","","","","","","","","","","","","","","","","","","",""
"599","<p style=""color:white; font-size: 35px;"">拙笨</p>","i","categorize-html","123","11701364","0.0-9.0-0.0-4.0-1.3","1","2","1","2","0","3","0","3","2","1","3","1","2","0","1","1","4","1","3","3","4","1","1","3","1","4","2","2","3","","1","0","1","1","0","1","1","1","0","1","0","0","0","0","0","3","1","3","3","1","1","1","1","2","3","27","","","","","","","","","","","","","","","","","","","","","","","","true","","","","","","","","","","2","599","","","","",""
"null","","null","html-keyboard-response","124","11701367","0.0-9.0-0.0-4.0-0.4","1","2","1","2","0","3","0","3","2","1","3","1","2","0","1","1","4","1","3","3","4","1","1","3","1","4","2","2","3","","1","0","1","1","0","1","1","1","0","1","0","0","0","0","0","3","1","3","3","1","1","1","1","2","3","27","","","","","","","","","","","","","","","","","","","","","","","","","","","","","","","","","","","","","","","",""
"419","<p style=""color:white; font-size: 35px;"">愚钝</p>","i","categorize-html","125","11701788","0.0-9.0-0.0-4.0-1.4","1","2","1","2","0","3","0","3","2","1","3","1","2","0","1","1","4","1","3","3","4","1","1","3","1","4","2","2","3","","1","0","1","1","0","1","1","1","0","1","0","0","0","0","0","3","1","3","3","1","1","1","1","2","3","27","","","","","","","","","","","","","","","","","","","","","","","","true","","","","","","","","","","2","419","","","","",""
"null","","null","html-keyboard-response","126","11701791","0.0-9.0-0.0-4.0-0.5","1","2","1","2","0","3","0","3","2","1","3","1","2","0","1","1","4","1","3","3","4","1","1","3","1","4","2","2","3","","1","0","1","1","0","1","1","1","0","1","0","0","0","0","0","3","1","3","3","1","1","1","1","2","3","27","","","","","","","","","","","","","","","","","","","","","","","","","","","","","","","","","","","","","","","",""
"734","<p style=""color:white; font-size: 35px;"">能干</p>","e","categorize-html","127","11702525","0.0-9.0-0.0-4.0-1.5","1","2","1","2","0","3","0","3","2","1","3","1","2","0","1","1","4","1","3","3","4","1","1","3","1","4","2","2","3","","1","0","1","1","0","1","1","1","0","1","0","0","0","0","0","3","1","3","3","1","1","1","1","2","3","27","","","","","","","","","","","","","","","","","","","","","","","","true","","","","","","","","","","2","734","","","","",""
"null","","null","html-keyboard-response","128","11702528","0.0-9.0-0.0-4.0-0.6","1","2","1","2","0","3","0","3","2","1","3","1","2","0","1","1","4","1","3","3","4","1","1","3","1","4","2","2","3","","1","0","1","1","0","1","1","1","0","1","0","0","0","0","0","3","1","3","3","1","1","1","1","2","3","27","","","","","","","","","","","","","","","","","","","","","","","","","","","","","","","","","","","","","","","",""
"653","<p style=""color:white; font-size: 35px;"">高效</p>","e","categorize-html","129","11703183","0.0-9.0-0.0-4.0-1.6","1","2","1","2","0","3","0","3","2","1","3","1","2","0","1","1","4","1","3","3","4","1","1","3","1","4","2","2","3","","1","0","1","1","0","1","1","1","0","1","0","0","0","0","0","3","1","3","3","1","1","1","1","2","3","27","","","","","","","","","","","","","","","","","","","","","","","","true","","","","","","","","","","2","653","","","","",""
"null","","null","html-keyboard-response","130","11703185","0.0-9.0-0.0-4.0-0.7","1","2","1","2","0","3","0","3","2","1","3","1","2","0","1","1","4","1","3","3","4","1","1","3","1","4","2","2","3","","1","0","1","1","0","1","1","1","0","1","0","0","0","0","0","3","1","3","3","1","1","1","1","2","3","27","","","","","","","","","","","","","","","","","","","","","","","","","","","","","","","","","","","","","","","",""
"794","<p style=""color:white; font-size: 35px;"">精干</p>","e","categorize-html","131","11703980","0.0-9.0-0.0-4.0-1.7","1","2","1","2","0","3","0","3","2","1","3","1","2","0","1","1","4","1","3","3","4","1","1","3","1","4","2","2","3","","1","0","1","1","0","1","1","1","0","1","0","0","0","0","0","3","1","3","3","1","1","1","1","2","3","27","","","","","","","","","","","","","","","","","","","","","","","","true","","","","","","","","","","2","794","","","","",""
"1041","
    <div class=""tag-bottom""><p>
    —— 任务3：对“他人/积极”词和“自我/消极”词分类 ——<br/>
    <span style=""color:#78DCE8""><b>注意上方，之前的四类词语将混合在一起交替呈现</b></span><br/>
    <span style=""color:#FFD866""><b>请根据上方标签的提示，尽可能正确并且快速地做出按键反应</b></span><br/>
    当按键错误时屏幕中会出现<span style=""color:red""> X </span>，需要按另一个键纠正才能继续<br/><br/>
    请把双手食指分别放在键盘的“E”键和“I”键上<br/>
    按<空格键>开始
    </p></div>"," ","html-keyboard-response","132","11705022","0.0-9.0-0.0-5.0","1","2","1","2","0","3","0","3","2","1","3","1","2","0","1","1","4","1","3","3","4","1","1","3","1","4","2","2","3","","1","0","1","1","0","1","1","1","0","1","0","0","0","0","0","3","1","3","3","1","1","1","1","2","3","27","","","","","","","","","","","","","","","","","","","","","","","","","","","","","","","","","","","","","","","",""
"null","","null","html-keyboard-response","133","11705028","0.0-9.0-0.0-6.0-0.0","1","2","1","2","0","3","0","3","2","1","3","1","2","0","1","1","4","1","3","3","4","1","1","3","1","4","2","2","3","","1","0","1","1","0","1","1","1","0","1","0","0","0","0","0","3","1","3","3","1","1","1","1","2","3","27","","","","","","","","","","","","","","","","","","","","","","","","","","","","","","","","","","","","","","","",""
"4864","<p style=""color:rgb(150, 250, 100); font-size: 35px;"">他人</p>","e","categorize-html","134","11709893","0.0-9.0-0.0-6.0-1.0","1","2","1","2","0","3","0","3","2","1","3","1","2","0","1","1","4","1","3","3","4","1","1","3","1","4","2","2","3","","1","0","1","1","0","1","1","1","0","1","0","0","0","0","0","3","1","3","3","1","1","1","1","2","3","27","","","","","","","","","","","","","","","","","","","","","","","","true","","","","","","","","","","3","4864","","","","",""
"null","","null","html-keyboard-response","135","11709897","0.0-9.0-0.0-6.0-0.1","1","2","1","2","0","3","0","3","2","1","3","1","2","0","1","1","4","1","3","3","4","1","1","3","1","4","2","2","3","","1","0","1","1","0","1","1","1","0","1","0","0","0","0","0","3","1","3","3","1","1","1","1","2","3","27","","","","","","","","","","","","","","","","","","","","","","","","","","","","","","","","","","","","","","","",""
"1067","<p style=""color:white; font-size: 35px;"">废物</p>","i","categorize-html","136","11710965","0.0-9.0-0.0-6.0-1.1","1","2","1","2","0","3","0","3","2","1","3","1","2","0","1","1","4","1","3","3","4","1","1","3","1","4","2","2","3","","1","0","1","1","0","1","1","1","0","1","0","0","0","0","0","3","1","3","3","1","1","1","1","2","3","27","","","","","","","","","","","","","","","","","","","","","","","","true","","","","","","","","","","3","1067","","","","",""
"null","","null","html-keyboard-response","137","11710969","0.0-9.0-0.0-6.0-0.2","1","2","1","2","0","3","0","3","2","1","3","1","2","0","1","1","4","1","3","3","4","1","1","3","1","4","2","2","3","","1","0","1","1","0","1","1","1","0","1","0","0","0","0","0","3","1","3","3","1","1","1","1","2","3","27","","","","","","","","","","","","","","","","","","","","","","","","","","","","","","","","","","","","","","","",""
"821","<p style=""color:rgb(150, 250, 100); font-size: 35px;"">我的</p>","i","categorize-html","138","11711792","0.0-9.0-0.0-6.0-1.2","1","2","1","2","0","3","0","3","2","1","3","1","2","0","1","1","4","1","3","3","4","1","1","3","1","4","2","2","3","","1","0","1","1","0","1","1","1","0","1","0","0","0","0","0","3","1","3","3","1","1","1","1","2","3","27","","","","","","","","","","","","","","","","","","","","","","","","true","","","","","","","","","","3","821","","","","",""
"null","","null","html-keyboard-response","139","11711797","0.0-9.0-0.0-6.0-0.3","1","2","1","2","0","3","0","3","2","1","3","1","2","0","1","1","4","1","3","3","4","1","1","3","1","4","2","2","3","","1","0","1","1","0","1","1","1","0","1","0","0","0","0","0","3","1","3","3","1","1","1","1","2","3","27","","","","","","","","","","","","","","","","","","","","","","","","","","","","","","","","","","","","","","","",""
"1026","<p style=""color:white; font-size: 35px;"">能干</p>","e","categorize-html","140","11712824","0.0-9.0-0.0-6.0-1.3","1","2","1","2","0","3","0","3","2","1","3","1","2","0","1","1","4","1","3","3","4","1","1","3","1","4","2","2","3","","1","0","1","1","0","1","1","1","0","1","0","0","0","0","0","3","1","3","3","1","1","1","1","2","3","27","","","","","","","","","","","","","","","","","","","","","","","","true","","","","","","","","","","3","1026","","","","",""
"null","","null","html-keyboard-response","141","11712829","0.0-9.0-0.0-6.0-0.4","1","2","1","2","0","3","0","3","2","1","3","1","2","0","1","1","4","1","3","3","4","1","1","3","1","4","2","2","3","","1","0","1","1","0","1","1","1","0","1","0","0","0","0","0","3","1","3","3","1","1","1","1","2","3","27","","","","","","","","","","","","","","","","","","","","","","","","","","","","","","","","","","","","","","","",""
"562","<p style=""color:rgb(150, 250, 100); font-size: 35px;"">他人的</p>","e","categorize-html","142","11713392","0.0-9.0-0.0-6.0-1.4","1","2","1","2","0","3","0","3","2","1","3","1","2","0","1","1","4","1","3","3","4","1","1","3","1","4","2","2","3","","1","0","1","1","0","1","1","1","0","1","0","0","0","0","0","3","1","3","3","1","1","1","1","2","3","27","","","","","","","","","","","","","","","","","","","","","","","","true","","","","","","","","","","3","562","","","","",""
"null","","null","html-keyboard-response","143","11713397","0.0-9.0-0.0-6.0-0.5","1","2","1","2","0","3","0","3","2","1","3","1","2","0","1","1","4","1","3","3","4","1","1","3","1","4","2","2","3","","1","0","1","1","0","1","1","1","0","1","0","0","0","0","0","3","1","3","3","1","1","1","1","2","3","27","","","","","","","","","","","","","","","","","","","","","","","","","","","","","","","","","","","","","","","",""
"956","<p style=""color:white; font-size: 35px;"">低能</p>","i","categorize-html","144","11714354","0.0-9.0-0.0-6.0-1.5","1","2","1","2","0","3","0","3","2","1","3","1","2","0","1","1","4","1","3","3","4","1","1","3","1","4","2","2","3","","1","0","1","1","0","1","1","1","0","1","0","0","0","0","0","3","1","3","3","1","1","1","1","2","3","27","","","","","","","","","","","","","","","","","","","","","","","","true","","","","","","","","","","3","956","","","","",""
"null","","null","html-keyboard-response","145","11714358","0.0-9.0-0.0-6.0-0.6","1","2","1","2","0","3","0","3","2","1","3","1","2","0","1","1","4","1","3","3","4","1","1","3","1","4","2","2","3","","1","0","1","1","0","1","1","1","0","1","0","0","0","0","0","3","1","3","3","1","1","1","1","2","3","27","","","","","","","","","","","","","","","","","","","","","","","","","","","","","","","","","","","","","","","",""
"318","<p style=""color:rgb(150, 250, 100); font-size: 35px;"">我</p>","e","categorize-html","146","11715259","0.0-9.0-0.0-6.0-1.6","1","2","1","2","0","3","0","3","2","1","3","1","2","0","1","1","4","1","3","3","4","1","1","3","1","4","2","2","3","","1","0","1","1","0","1","1","1","0","1","0","0","0","0","0","3","1","3","3","1","1","1","1","2","3","27","","","","","","","","","","","","","","","","","","","","","","","","false","","","","","","","","","","3","2057.857142857143","","","","",""
"null","","null","html-keyboard-response","147","11715263","0.0-9.0-0.0-6.0-0.7","1","2","1","2","0","3","0","3","2","1","3","1","2","0","1","1","4","1","3","3","4","1","1","3","1","4","2","2","3","","1","0","1","1","0","1","1","1","0","1","0","0","0","0","0","3","1","3","3","1","1","1","1","2","3","27","","","","","","","","","","","","","","","","","","","","","","","","","","","","","","","","","","","","","","","",""
"909","<p style=""color:white; font-size: 35px;"">全能</p>","e","categorize-html","148","11716174","0.0-9.0-0.0-6.0-1.7","1","2","1","2","0","3","0","3","2","1","3","1","2","0","1","1","4","1","3","3","4","1","1","3","1","4","2","2","3","","1","0","1","1","0","1","1","1","0","1","0","0","0","0","0","3","1","3","3","1","1","1","1","2","3","27","","","","","","","","","","","","","","","","","","","","","","","","true","","","","","","","","","","3","909","","","","",""
"756","
    <div class=""tag-bottom""><p>
    —— 任务4：对“他人/积极”词和“自我/消极”词分类 ——<br/>
    <span style=""color:#78DCE8""><b>与刚才的任务完全相同，请再次对这四类词语分类</b></span><br/>
    <span style=""color:#FFD866""><b>请根据上方标签的提示，尽可能正确并且快速地做出按键反应</b></span><br/>
    当按键错误时屏幕中会出现<span style=""color:red""> X </span>，需要按另一个键纠正才能继续<br/><br/>
    请把双手食指分别放在键盘的“E”键和“I”键上<br/>
    按<空格键>开始
    </p></div>"," ","html-keyboard-response","149","11716930","0.0-9.0-0.0-7.0","1","2","1","2","0","3","0","3","2","1","3","1","2","0","1","1","4","1","3","3","4","1","1","3","1","4","2","2","3","","1","0","1","1","0","1","1","1","0","1","0","0","0","0","0","3","1","3","3","1","1","1","1","2","3","27","","","","","","","","","","","","","","","","","","","","","","","","","","","","","","","","","","","","","","","",""
"null","","null","html-keyboard-response","150","11716939","0.0-9.0-0.0-8.0-0.0","1","2","1","2","0","3","0","3","2","1","3","1","2","0","1","1","4","1","3","3","4","1","1","3","1","4","2","2","3","","1","0","1","1","0","1","1","1","0","1","0","0","0","0","0","3","1","3","3","1","1","1","1","2","3","27","","","","","","","","","","","","","","","","","","","","","","","","","","","","","","","","","","","","","","","",""
"991","<p style=""color:rgb(150, 250, 100); font-size: 35px;"">他人</p>","e","categorize-html","151","11717932","0.0-9.0-0.0-8.0-1.0","1","2","1","2","0","3","0","3","2","1","3","1","2","0","1","1","4","1","3","3","4","1","1","3","1","4","2","2","3","","1","0","1","1","0","1","1","1","0","1","0","0","0","0","0","3","1","3","3","1","1","1","1","2","3","27","","","","","","","","","","","","","","","","","","","","","","","","true","","","","","","","","","","4","991","","","","",""
"null","","null","html-keyboard-response","152","11717940","0.0-9.0-0.0-8.0-0.1","1","2","1","2","0","3","0","3","2","1","3","1","2","0","1","1","4","1","3","3","4","1","1","3","1","4","2","2","3","","1","0","1","1","0","1","1","1","0","1","0","0","0","0","0","3","1","3","3","1","1","1","1","2","3","27","","","","","","","","","","","","","","","","","","","","","","","","","","","","","","","","","","","","","","","",""
"1302","<p style=""color:white; font-size: 35px;"">全才</p>","e","categorize-html","153","11719244","0.0-9.0-0.0-8.0-1.1","1","2","1","2","0","3","0","3","2","1","3","1","2","0","1","1","4","1","3","3","4","1","1","3","1","4","2","2","3","","1","0","1","1","0","1","1","1","0","1","0","0","0","0","0","3","1","3","3","1","1","1","1","2","3","27","","","","","","","","","","","","","","","","","","","","","","","","true","","","","","","","","","","4","1302","","","","",""
"null","","null","html-keyboard-response","154","11719253","0.0-9.0-0.0-8.0-0.2","1","2","1","2","0","3","0","3","2","1","3","1","2","0","1","1","4","1","3","3","4","1","1","3","1","4","2","2","3","","1","0","1","1","0","1","1","1","0","1","0","0","0","0","0","3","1","3","3","1","1","1","1","2","3","27","","","","","","","","","","","","","","","","","","","","","","","","","","","","","","","","","","","","","","","",""
"901","<p style=""color:rgb(150, 250, 100); font-size: 35px;"">自己的</p>","i","categorize-html","155","11720155","0.0-9.0-0.0-8.0-1.2","1","2","1","2","0","3","0","3","2","1","3","1","2","0","1","1","4","1","3","3","4","1","1","3","1","4","2","2","3","","1","0","1","1","0","1","1","1","0","1","0","0","0","0","0","3","1","3","3","1","1","1","1","2","3","27","","","","","","","","","","","","","","","","","","","","","","","","true","","","","","","","","","","4","901","","","","",""
"null","","null","html-keyboard-response","156","11720164","0.0-9.0-0.0-8.0-0.3","1","2","1","2","0","3","0","3","2","1","3","1","2","0","1","1","4","1","3","3","4","1","1","3","1","4","2","2","3","","1","0","1","1","0","1","1","1","0","1","0","0","0","0","0","3","1","3","3","1","1","1","1","2","3","27","","","","","","","","","","","","","","","","","","","","","","","","","","","","","","","","","","","","","","","",""
"608","<p style=""color:white; font-size: 35px;"">无能</p>","i","categorize-html","157","11720774","0.0-9.0-0.0-8.0-1.3","1","2","1","2","0","3","0","3","2","1","3","1","2","0","1","1","4","1","3","3","4","1","1","3","1","4","2","2","3","","1","0","1","1","0","1","1","1","0","1","0","0","0","0","0","3","1","3","3","1","1","1","1","2","3","27","","","","","","","","","","","","","","","","","","","","","","","","true","","","","","","","","","","4","608","","","","",""
"null","","null","html-keyboard-response","158","11720783","0.0-9.0-0.0-8.0-0.4","1","2","1","2","0","3","0","3","2","1","3","1","2","0","1","1","4","1","3","3","4","1","1","3","1","4","2","2","3","","1","0","1","1","0","1","1","1","0","1","0","0","0","0","0","3","1","3","3","1","1","1","1","2","3","27","","","","","","","","","","","","","","","","","","","","","","","","","","","","","","","","","","","","","","","",""
"753","<p style=""color:rgb(150, 250, 100); font-size: 35px;"">他的</p>","e","categorize-html","159","11721537","0.0-9.0-0.0-8.0-1.4","1","2","1","2","0","3","0","3","2","1","3","1","2","0","1","1","4","1","3","3","4","1","1","3","1","4","2","2","3","","1","0","1","1","0","1","1","1","0","1","0","0","0","0","0","3","1","3","3","1","1","1","1","2","3","27","","","","","","","","","","","","","","","","","","","","","","","","true","","","","","","","","","","4","753","","","","",""
"null","","null","html-keyboard-response","160","11721546","0.0-9.0-0.0-8.0-0.5","1","2","1","2","0","3","0","3","2","1","3","1","2","0","1","1","4","1","3","3","4","1","1","3","1","4","2","2","3","","1","0","1","1","0","1","1","1","0","1","0","0","0","0","0","3","1","3","3","1","1","1","1","2","3","27","","","","","","","","","","","","","","","","","","","","","","","","","","","","","","","","","","","","","","","",""
"637","<p style=""color:white; font-size: 35px;"">全能</p>","e","categorize-html","161","11722184","0.0-9.0-0.0-8.0-1.5","1","2","1","2","0","3","0","3","2","1","3","1","2","0","1","1","4","1","3","3","4","1","1","3","1","4","2","2","3","","1","0","1","1","0","1","1","1","0","1","0","0","0","0","0","3","1","3","3","1","1","1","1","2","3","27","","","","","","","","","","","","","","","","","","","","","","","","true","","","","","","","","","","4","637","","","","",""
"null","","null","html-keyboard-response","162","11722193","0.0-9.0-0.0-8.0-0.6","1","2","1","2","0","3","0","3","2","1","3","1","2","0","1","1","4","1","3","3","4","1","1","3","1","4","2","2","3","","1","0","1","1","0","1","1","1","0","1","0","0","0","0","0","3","1","3","3","1","1","1","1","2","3","27","","","","","","","","","","","","","","","","","","","","","","","","","","","","","","","","","","","","","","","",""
"826","<p style=""color:rgb(150, 250, 100); font-size: 35px;"">我的</p>","e","categorize-html","163","11723716","0.0-9.0-0.0-8.0-1.6","1","2","1","2","0","3","0","3","2","1","3","1","2","0","1","1","4","1","3","3","4","1","1","3","1","4","2","2","3","","1","0","1","1","0","1","1","1","0","1","0","0","0","0","0","3","1","3","3","1","1","1","1","2","3","27","","","","","","","","","","","","","","","","","","","","","","","","false","","","","","","","","","","4","1543.5714285714284","","","","",""
"null","","null","html-keyboard-response","164","11723725","0.0-9.0-0.0-8.0-0.7","1","2","1","2","0","3","0","3","2","1","3","1","2","0","1","1","4","1","3","3","4","1","1","3","1","4","2","2","3","","1","0","1","1","0","1","1","1","0","1","0","0","0","0","0","3","1","3","3","1","1","1","1","2","3","27","","","","","","","","","","","","","","","","","","","","","","","","","","","","","","","","","","","","","","","",""
"1413","<p style=""color:white; font-size: 35px;"">低能</p>","i","categorize-html","165","11725138","0.0-9.0-0.0-8.0-1.7","1","2","1","2","0","3","0","3","2","1","3","1","2","0","1","1","4","1","3","3","4","1","1","3","1","4","2","2","3","","1","0","1","1","0","1","1","1","0","1","0","0","0","0","0","3","1","3","3","1","1","1","1","2","3","27","","","","","","","","","","","","","","","","","","","","","","","","true","","","","","","","","","","4","1413","","","","",""
"912","
    <div class=""tag-bottom""><p>
    —— 任务5：对“自我”词和“他人”词分类 ——<br/>
    <span style=""color:#FF6188""><b>注意上方，仍然是两个类别标签，但互换了位置！</b></span><br/>
    <span style=""color:#FFD866""><b>请根据上方标签的提示，尽可能正确并且快速地做出按键反应</b></span><br/>
    当按键错误时屏幕中会出现<span style=""color:red""> X </span>，需要按另一个键纠正才能继续<br/><br/>
    请把双手食指分别放在键盘的“E”键和“I”键上<br/>
    按<空格键>开始
    </p></div>"," ","html-keyboard-response","166","11726051","0.0-9.0-0.0-9.0","1","2","1","2","0","3","0","3","2","1","3","1","2","0","1","1","4","1","3","3","4","1","1","3","1","4","2","2","3","","1","0","1","1","0","1","1","1","0","1","0","0","0","0","0","3","1","3","3","1","1","1","1","2","3","27","","","","","","","","","","","","","","","","","","","","","","","","","","","","","","","","","","","","","","","",""
"null","","null","html-keyboard-response","167","11726056","0.0-9.0-0.0-10.0-0.0","1","2","1","2","0","3","0","3","2","1","3","1","2","0","1","1","4","1","3","3","4","1","1","3","1","4","2","2","3","","1","0","1","1","0","1","1","1","0","1","0","0","0","0","0","3","1","3","3","1","1","1","1","2","3","27","","","","","","","","","","","","","","","","","","","","","","","","","","","","","","","","","","","","","","","",""
"1055","<p style=""color:rgb(150, 250, 100); font-size: 35px;"">我的</p>","e","categorize-html","168","11727112","0.0-9.0-0.0-10.0-1.0","1","2","1","2","0","3","0","3","2","1","3","1","2","0","1","1","4","1","3","3","4","1","1","3","1","4","2","2","3","","1","0","1","1","0","1","1","1","0","1","0","0","0","0","0","3","1","3","3","1","1","1","1","2","3","27","","","","","","","","","","","","","","","","","","","","","","","","true","","","","","","","","","","5","1055","","","","",""
"null","","null","html-keyboard-response","169","11727117","0.0-9.0-0.0-10.0-0.1","1","2","1","2","0","3","0","3","2","1","3","1","2","0","1","1","4","1","3","3","4","1","1","3","1","4","2","2","3","","1","0","1","1","0","1","1","1","0","1","0","0","0","0","0","3","1","3","3","1","1","1","1","2","3","27","","","","","","","","","","","","","","","","","","","","","","","","","","","","","","","","","","","","","","","",""
"827","<p style=""color:rgb(150, 250, 100); font-size: 35px;"">本人</p>","e","categorize-html","170","11727946","0.0-9.0-0.0-10.0-1.1","1","2","1","2","0","3","0","3","2","1","3","1","2","0","1","1","4","1","3","3","4","1","1","3","1","4","2","2","3","","1","0","1","1","0","1","1","1","0","1","0","0","0","0","0","3","1","3","3","1","1","1","1","2","3","27","","","","","","","","","","","","","","","","","","","","","","","","true","","","","","","","","","","5","827","","","","",""
"null","","null","html-keyboard-response","171","11727950","0.0-9.0-0.0-10.0-0.2","1","2","1","2","0","3","0","3","2","1","3","1","2","0","1","1","4","1","3","3","4","1","1","3","1","4","2","2","3","","1","0","1","1","0","1","1","1","0","1","0","0","0","0","0","3","1","3","3","1","1","1","1","2","3","27","","","","","","","","","","","","","","","","","","","","","","","","","","","","","","","","","","","","","","","",""
"753","<p style=""color:rgb(150, 250, 100); font-size: 35px;"">我</p>","e","categorize-html","172","11728704","0.0-9.0-0.0-10.0-1.2","1","2","1","2","0","3","0","3","2","1","3","1","2","0","1","1","4","1","3","3","4","1","1","3","1","4","2","2","3","","1","0","1","1","0","1","1","1","0","1","0","0","0","0","0","3","1","3","3","1","1","1","1","2","3","27","","","","","","","","","","","","","","","","","","","","","","","","true","","","","","","","","","","5","753","","","","",""
"null","","null","html-keyboard-response","173","11728708","0.0-9.0-0.0-10.0-0.3","1","2","1","2","0","3","0","3","2","1","3","1","2","0","1","1","4","1","3","3","4","1","1","3","1","4","2","2","3","","1","0","1","1","0","1","1","1","0","1","0","0","0","0","0","3","1","3","3","1","1","1","1","2","3","27","","","","","","","","","","","","","","","","","","","","","","","","","","","","","","","","","","","","","","","",""
"1034","<p style=""color:rgb(150, 250, 100); font-size: 35px;"">他的</p>","i","categorize-html","174","11729744","0.0-9.0-0.0-10.0-1.3","1","2","1","2","0","3","0","3","2","1","3","1","2","0","1","1","4","1","3","3","4","1","1","3","1","4","2","2","3","","1","0","1","1","0","1","1","1","0","1","0","0","0","0","0","3","1","3","3","1","1","1","1","2","3","27","","","","","","","","","","","","","","","","","","","","","","","","true","","","","","","","","","","5","1034","","","","",""
"null","","null","html-keyboard-response","175","11729748","0.0-9.0-0.0-10.0-0.4","1","2","1","2","0","3","0","3","2","1","3","1","2","0","1","1","4","1","3","3","4","1","1","3","1","4","2","2","3","","1","0","1","1","0","1","1","1","0","1","0","0","0","0","0","3","1","3","3","1","1","1","1","2","3","27","","","","","","","","","","","","","","","","","","","","","","","","","","","","","","","","","","","","","","","",""
"1061","<p style=""color:rgb(150, 250, 100); font-size: 35px;"">我</p>","e","categorize-html","176","11730811","0.0-9.0-0.0-10.0-1.4","1","2","1","2","0","3","0","3","2","1","3","1","2","0","1","1","4","1","3","3","4","1","1","3","1","4","2","2","3","","1","0","1","1","0","1","1","1","0","1","0","0","0","0","0","3","1","3","3","1","1","1","1","2","3","27","","","","","","","","","","","","","","","","","","","","","","","","true","","","","","","","","","","5","1061","","","","",""
"null","","null","html-keyboard-response","177","11730816","0.0-9.0-0.0-10.0-0.5","1","2","1","2","0","3","0","3","2","1","3","1","2","0","1","1","4","1","3","3","4","1","1","3","1","4","2","2","3","","1","0","1","1","0","1","1","1","0","1","0","0","0","0","0","3","1","3","3","1","1","1","1","2","3","27","","","","","","","","","","","","","","","","","","","","","","","","","","","","","","","","","","","","","","","",""
"856","<p style=""color:rgb(150, 250, 100); font-size: 35px;"">他人的</p>","i","categorize-html","178","11731673","0.0-9.0-0.0-10.0-1.5","1","2","1","2","0","3","0","3","2","1","3","1","2","0","1","1","4","1","3","3","4","1","1","3","1","4","2","2","3","","1","0","1","1","0","1","1","1","0","1","0","0","0","0","0","3","1","3","3","1","1","1","1","2","3","27","","","","","","","","","","","","","","","","","","","","","","","","true","","","","","","","","","","5","856","","","","",""
"null","","null","html-keyboard-response","179","11731678","0.0-9.0-0.0-10.0-0.6","1","2","1","2","0","3","0","3","2","1","3","1","2","0","1","1","4","1","3","3","4","1","1","3","1","4","2","2","3","","1","0","1","1","0","1","1","1","0","1","0","0","0","0","0","3","1","3","3","1","1","1","1","2","3","27","","","","","","","","","","","","","","","","","","","","","","","","","","","","","","","","","","","","","","","",""
"842","<p style=""color:rgb(150, 250, 100); font-size: 35px;"">自己的</p>","e","categorize-html","180","11732521","0.0-9.0-0.0-10.0-1.6","1","2","1","2","0","3","0","3","2","1","3","1","2","0","1","1","4","1","3","3","4","1","1","3","1","4","2","2","3","","1","0","1","1","0","1","1","1","0","1","0","0","0","0","0","3","1","3","3","1","1","1","1","2","3","27","","","","","","","","","","","","","","","","","","","","","","","","true","","","","","","","","","","5","842","","","","",""
"null","","null","html-keyboard-response","181","11732525","0.0-9.0-0.0-10.0-0.7","1","2","1","2","0","3","0","3","2","1","3","1","2","0","1","1","4","1","3","3","4","1","1","3","1","4","2","2","3","","1","0","1","1","0","1","1","1","0","1","0","0","0","0","0","3","1","3","3","1","1","1","1","2","3","27","","","","","","","","","","","","","","","","","","","","","","","","","","","","","","","","","","","","","","","",""
"1105","<p style=""color:rgb(150, 250, 100); font-size: 35px;"">别人</p>","i","categorize-html","182","11733631","0.0-9.0-0.0-10.0-1.7","1","2","1","2","0","3","0","3","2","1","3","1","2","0","1","1","4","1","3","3","4","1","1","3","1","4","2","2","3","","1","0","1","1","0","1","1","1","0","1","0","0","0","0","0","3","1","3","3","1","1","1","1","2","3","27","","","","","","","","","","","","","","","","","","","","","","","","true","","","","","","","","","","5","1105","","","","",""
"1235","
    <div class=""tag-bottom""><p>
    —— 任务6：对“他人/消极”词和“自我/积极”词分类 ——<br/>
    <span style=""color:#FF6188""><b>注意上方，四类词语将以新的组合方式交替呈现！</b></span><br/>
    <span style=""color:#FFD866""><b>请根据上方标签的提示，尽可能正确并且快速地做出按键反应</b></span><br/>
    当按键错误时屏幕中会出现<span style=""color:red""> X </span>，需要按另一个键纠正才能继续<br/><br/>
    请把双手食指分别放在键盘的“E”键和“I”键上<br/>
    按<空格键>开始
    </p></div>"," ","html-keyboard-response","183","11734867","0.0-9.0-0.0-11.0","1","2","1","2","0","3","0","3","2","1","3","1","2","0","1","1","4","1","3","3","4","1","1","3","1","4","2","2","3","","1","0","1","1","0","1","1","1","0","1","0","0","0","0","0","3","1","3","3","1","1","1","1","2","3","27","","","","","","","","","","","","","","","","","","","","","","","","","","","","","","","","","","","","","","","",""
"null","","null","html-keyboard-response","184","11734872","0.0-9.0-0.0-12.0-0.0","1","2","1","2","0","3","0","3","2","1","3","1","2","0","1","1","4","1","3","3","4","1","1","3","1","4","2","2","3","","1","0","1","1","0","1","1","1","0","1","0","0","0","0","0","3","1","3","3","1","1","1","1","2","3","27","","","","","","","","","","","","","","","","","","","","","","","","","","","","","","","","","","","","","","","",""
"1306","<p style=""color:white; font-size: 35px;"">天才</p>","e","categorize-html","185","11736179","0.0-9.0-0.0-12.0-1.0","1","2","1","2","0","3","0","3","2","1","3","1","2","0","1","1","4","1","3","3","4","1","1","3","1","4","2","2","3","","1","0","1","1","0","1","1","1","0","1","0","0","0","0","0","3","1","3","3","1","1","1","1","2","3","27","","","","","","","","","","","","","","","","","","","","","","","","true","","","","","","","","","","6","1306","","","","",""
"null","","null","html-keyboard-response","186","11736184","0.0-9.0-0.0-12.0-0.1","1","2","1","2","0","3","0","3","2","1","3","1","2","0","1","1","4","1","3","3","4","1","1","3","1","4","2","2","3","","1","0","1","1","0","1","1","1","0","1","0","0","0","0","0","3","1","3","3","1","1","1","1","2","3","27","","","","","","","","","","","","","","","","","","","","","","","","","","","","","","","","","","","","","","","",""
"1041","<p style=""color:rgb(150, 250, 100); font-size: 35px;"">他人</p>","i","categorize-html","187","11737227","0.0-9.0-0.0-12.0-1.1","1","2","1","2","0","3","0","3","2","1","3","1","2","0","1","1","4","1","3","3","4","1","1","3","1","4","2","2","3","","1","0","1","1","0","1","1","1","0","1","0","0","0","0","0","3","1","3","3","1","1","1","1","2","3","27","","","","","","","","","","","","","","","","","","","","","","","","true","","","","","","","","","","6","1041","","","","",""
"null","","null","html-keyboard-response","188","11737232","0.0-9.0-0.0-12.0-0.2","1","2","1","2","0","3","0","3","2","1","3","1","2","0","1","1","4","1","3","3","4","1","1","3","1","4","2","2","3","","1","0","1","1","0","1","1","1","0","1","0","0","0","0","0","3","1","3","3","1","1","1","1","2","3","27","","","","","","","","","","","","","","","","","","","","","","","","","","","","","","","","","","","","","","","",""
"880","<p style=""color:white; font-size: 35px;"">拙笨</p>","i","categorize-html","189","11738113","0.0-9.0-0.0-12.0-1.2","1","2","1","2","0","3","0","3","2","1","3","1","2","0","1","1","4","1","3","3","4","1","1","3","1","4","2","2","3","","1","0","1","1","0","1","1","1","0","1","0","0","0","0","0","3","1","3","3","1","1","1","1","2","3","27","","","","","","","","","","","","","","","","","","","","","","","","true","","","","","","","","","","6","880","","","","",""
"null","","null","html-keyboard-response","190","11738117","0.0-9.0-0.0-12.0-0.3","1","2","1","2","0","3","0","3","2","1","3","1","2","0","1","1","4","1","3","3","4","1","1","3","1","4","2","2","3","","1","0","1","1","0","1","1","1","0","1","0","0","0","0","0","3","1","3","3","1","1","1","1","2","3","27","","","","","","","","","","","","","","","","","","","","","","","","","","","","","","","","","","","","","","","",""
"961","<p style=""color:rgb(150, 250, 100); font-size: 35px;"">自己的</p>","e","categorize-html","191","11739080","0.0-9.0-0.0-12.0-1.3","1","2","1","2","0","3","0","3","2","1","3","1","2","0","1","1","4","1","3","3","4","1","1","3","1","4","2","2","3","","1","0","1","1","0","1","1","1","0","1","0","0","0","0","0","3","1","3","3","1","1","1","1","2","3","27","","","","","","","","","","","","","","","","","","","","","","","","true","","","","","","","","","","6","961","","","","",""
"null","","null","html-keyboard-response","192","11739084","0.0-9.0-0.0-12.0-0.4","1","2","1","2","0","3","0","3","2","1","3","1","2","0","1","1","4","1","3","3","4","1","1","3","1","4","2","2","3","","1","0","1","1","0","1","1","1","0","1","0","0","0","0","0","3","1","3","3","1","1","1","1","2","3","27","","","","","","","","","","","","","","","","","","","","","","","","","","","","","","","","","","","","","","","",""
"995","<p style=""color:white; font-size: 35px;"">能干</p>","e","categorize-html","193","11740081","0.0-9.0-0.0-12.0-1.4","1","2","1","2","0","3","0","3","2","1","3","1","2","0","1","1","4","1","3","3","4","1","1","3","1","4","2","2","3","","1","0","1","1","0","1","1","1","0","1","0","0","0","0","0","3","1","3","3","1","1","1","1","2","3","27","","","","","","","","","","","","","","","","","","","","","","","","true","","","","","","","","","","6","995","","","","",""
"null","","null","html-keyboard-response","194","11740085","0.0-9.0-0.0-12.0-0.5","1","2","1","2","0","3","0","3","2","1","3","1","2","0","1","1","4","1","3","3","4","1","1","3","1","4","2","2","3","","1","0","1","1","0","1","1","1","0","1","0","0","0","0","0","3","1","3","3","1","1","1","1","2","3","27","","","","","","","","","","","","","","","","","","","","","","","","","","","","","","","","","","","","","","","",""
"299","<p style=""color:rgb(150, 250, 100); font-size: 35px;"">他的</p>","e","categorize-html","195","11741072","0.0-9.0-0.0-12.0-1.5","1","2","1","2","0","3","0","3","2","1","3","1","2","0","1","1","4","1","3","3","4","1","1","3","1","4","2","2","3","","1","0","1","1","0","1","1","1","0","1","0","0","0","0","0","3","1","3","3","1","1","1","1","2","3","27","","","","","","","","","","","","","","","","","","","","","","","","false","","","","","","","","","","6","1599.7142857142858","","","","",""
"null","","null","html-keyboard-response","196","11741077","0.0-9.0-0.0-12.0-0.6","1","2","1","2","0","3","0","3","2","1","3","1","2","0","1","1","4","1","3","3","4","1","1","3","1","4","2","2","3","","1","0","1","1","0","1","1","1","0","1","0","0","0","0","0","3","1","3","3","1","1","1","1","2","3","27","","","","","","","","","","","","","","","","","","","","","","","","","","","","","","","","","","","","","","","",""
"1002","<p style=""color:white; font-size: 35px;"">低能</p>","i","categorize-html","197","11742080","0.0-9.0-0.0-12.0-1.6","1","2","1","2","0","3","0","3","2","1","3","1","2","0","1","1","4","1","3","3","4","1","1","3","1","4","2","2","3","","1","0","1","1","0","1","1","1","0","1","0","0","0","0","0","3","1","3","3","1","1","1","1","2","3","27","","","","","","","","","","","","","","","","","","","","","","","","true","","","","","","","","","","6","1002","","","","",""
